timestamp,Timestamp (Shimmer),ACCEL_X,ACCEL_Y,ACCEL_Z,GYRO_P,GYRO_R,GYRO_Y,GSR_RES,GSR_CON,PPG_RAW,HEART_RATE,HRV,Time since load,Time
349630.4179,502313.4063,-7.839616776,1.443446994,6.082585335,-0.4427481,-1.221374035,-1.02290082,1333.911743,2306,1336.263794,67.96459961,882.8125,0,0
349630.4205,502321.2188,-7.830041885,1.405146599,6.080191612,-0.610687017,-1.160305381,-1.496183157,1337.979126,2301,1336.263794,67.96459961,882.8125,7.8125,0.0025438
349630.4213,502329.0313,-7.815679073,1.431478143,6.061041355,-0.595419824,-0.900763333,-1.374045849,1336.349243,2303,1337.728882,67.96459961,882.8125,15.625,0.0033399
349630.4391,502336.8438,-7.796528816,1.42908442,6.089766502,-0.473282456,-1.175572515,-1.603053451,1335.535767,2304,1342.857178,67.96459961,882.8125,23.4375,0.0211525
349630.4458,502344.6563,-7.844404697,1.41711545,6.080191612,-0.53435117,-0.900763333,-1.51145041,1339.613037,2299,1350.915771,67.96459961,882.8125,31.25,0.027917
349630.457,502352.4688,-7.842010975,1.421903014,6.070616245,-0.53435117,-0.961832047,-1.358778596,1335.535767,2304,1364.102539,67.96459961,882.8125,39.0625,0.0391151
349630.4611,502360.2813,-7.813285351,1.412328005,6.058647633,-0.458015263,-0.946564913,-1.328244328,1338.795654,2300,1378.754639,67.96459961,882.8125,46.875,0.0431999
349630.4678,502368.0938,-7.784560204,1.433871984,6.08737278,-0.671755731,-1.572519064,-1.450381637,1337.163696,2302,1394.13916,67.96459961,882.8125,54.6875,0.0498366
349630.4769,502375.9063,-7.827648163,1.409934163,6.084979057,-0.458015263,-1.160305381,-1.236641169,1335.535767,2304,1406.593384,67.96459961,882.8125,62.5,0.0590118
349630.4772,502383.7188,-7.861160755,1.414721727,6.082585335,-0.503816783,-1.160305381,-1.175572515,1340.431519,2298,1416.849854,67.96459961,882.8125,70.3125,0.0593028
349630.4848,502391.5313,-7.844404697,1.412328005,6.068222523,-0.656488538,-1.236641169,-1.160305381,1336.349243,2303,1423.443237,67.96459961,882.8125,78.125,0.0669072
349630.4907,502399.3438,-7.820466995,1.421903014,6.0658288,-0.900763333,-1.038167953,-1.221374035,1338.795654,2300,1427.106201,67.96459961,882.8125,85.9375,0.0728138
349630.5057,502407.1563,-7.832435608,1.41711545,6.061041355,-0.48854962,-1.206106901,-1.129770994,1338.795654,2300,1424.908447,67.96459961,882.8125,93.75,0.0878004
349630.5157,502414.9688,-7.830041885,1.419509292,6.053860188,-0.931297719,-1.46564889,-1.374045849,1335.535767,2304,1419.047607,67.96459961,882.8125,101.5625,0.0977458
349630.5163,502422.7813,-7.861160755,1.397965312,6.051465988,-0.870229006,-1.480916023,-0.916030526,1340.431519,2298,1412.454224,67.96459961,882.8125,109.375,0.0983637
349630.5278,502430.5938,-7.844404697,1.414721727,6.051465988,-0.564885497,-1.664122105,-1.389312983,1335.535767,2304,1405.86084,67.96459961,882.8125,117.1875,0.1098298
349630.5348,502438.4063,-7.794135094,1.436265707,6.104129314,-0.564885497,-1.893129826,-1.496183157,1338.795654,2300,1400,67.96459961,882.8125,125,0.1168859
349630.5436,502446.2188,-7.82525444,1.419509292,6.101735592,-0.610687017,-1.725190878,-1.51145041,1340.431519,2298,1395.60437,67.96459961,882.8125,132.8125,0.1256808
349630.5555,502454.0313,-7.853979588,1.409934163,6.08737278,-0.564885497,-1.374045849,-1.572519064,1336.349243,2303,1389.74353,67.96459961,882.8125,140.625,0.1375965
349630.5616,502461.8438,-7.832435608,1.421903014,6.063435078,-0.732824445,-1.312977076,-1.06870234,1340.431519,2298,1381.684937,67.96459961,882.8125,148.4375,0.1436326
349630.5706,502469.6563,-7.760622501,1.390783906,6.092160225,-0.793893158,-1.129770994,-1.282442689,1337.979126,2301,1372.893799,67.96459961,882.8125,156.25,0.1526427
349630.571,502477.4688,-7.801316738,1.397965312,6.089766502,-0.53435117,-1.160305381,-1.267175555,1338.795654,2300,1361.904785,67.96459961,882.8125,164.0625,0.153104
349630.5795,502485.2813,-7.810891628,1.405146599,6.116097927,-0.809160292,-1.06870234,-1.312977076,1342.071411,2296,1348.717896,67.96459961,882.8125,171.875,0.1616083
349630.5914,502493.0938,-7.810891628,1.414721727,6.101735592,-0.656488538,-0.946564913,-1.343511462,1337.163696,2302,1336.996338,67.96459961,882.8125,179.6875,0.1734944
349630.5936,502500.9063,-7.820466995,1.376421332,6.075404167,-0.305343509,-0.824427485,-1.496183157,1342.071411,2296,1326.739868,67.96459961,882.8125,187.5,0.1757017
349630.6116,502508.7188,-7.770197392,1.405146599,6.07779789,-0.53435117,-0.763358772,-1.297709942,1339.613037,2299,1315.750977,67.96459961,882.8125,195.3125,0.1937027
349630.6193,502516.5313,-7.813285351,1.402752876,6.101735592,-0.625954211,-0.625954211,-1.267175555,1338.795654,2300,1305.494507,67.96459961,882.8125,203.125,0.2014251
349630.6254,502524.3438,-7.863554955,1.412328005,6.089766502,-0.564885497,-0.946564913,-1.251908422,1342.071411,2296,1296.703247,67.96459961,882.8125,210.9375,0.2075056
349630.6314,502532.1563,-7.842010975,1.414721727,6.084979057,-0.412213743,-0.687022924,-0.992366433,1337.979126,2301,1289.377319,67.96459961,882.8125,218.75,0.2134317
349630.6319,502539.9688,-7.818072796,1.41711545,6.058647633,-0.641221344,-0.519083977,-1.129770994,1342.071411,2296,1285.714233,67.96459961,882.8125,226.5625,0.213933
349630.6443,502547.7813,-7.82525444,1.424296856,6.049072266,-0.717557251,-0.702290058,-1.282442689,1341.250977,2297,1286.446899,67.96459961,882.8125,234.375,0.2263467
349630.6523,502555.5938,-7.839616776,1.397965312,6.053860188,-0.366412222,-1.282442689,-1.450381637,1338.795654,2300,1285.714233,67.96459961,882.8125,242.1875,0.234377
349630.6605,502563.4063,-7.851585865,1.426690578,6.096948147,-0.641221344,-1.206106901,-1.419847369,1342.892944,2295,1290.842529,67.96459961,882.8125,250,0.2425462
349630.6702,502571.2188,-7.822860718,1.409934163,6.08737278,-0.763358772,-1.297709942,-0.992366433,1338.795654,2300,1294.505493,67.96459961,882.8125,257.8125,0.2522923
349630.6706,502579.0313,-7.837223053,1.39557147,6.070616245,-0.732824445,-1.06870234,-1.267175555,1341.250977,2297,1296.703247,67.96459961,882.8125,265.625,0.2527056
349630.6862,502586.8438,-7.818072796,1.421903014,6.053860188,-0.900763333,-0.931297719,-1.236641169,1342.071411,2296,1296.703247,67.96459961,882.8125,273.4375,0.2682527
349630.6865,502594.6563,-7.789347649,1.397965312,6.05625391,-0.687022924,-1.343511462,-1.664122105,1338.795654,2300,1298.168457,67.96459961,882.8125,281.25,0.268548
349630.6962,502602.4688,-7.832435608,1.421903014,6.073009968,-0.732824445,-1.328244328,-1.603053451,1343.715454,2294,1303.296753,67.96459961,882.8125,289.0625,0.2782841
349630.7091,502610.2813,-7.858767033,1.412328005,6.084979057,-1.007633567,-1.282442689,-1.435114503,1340.431519,2298,1306.959717,67.96459961,882.8125,296.875,0.2912016
349630.7095,502618.0938,-7.84679842,1.400359035,6.116097927,-1.02290082,-1.297709942,-1.02290082,1340.431519,2298,1307.692261,67.96459961,882.8125,304.6875,0.2915932
349630.7273,502625.9063,-7.789347649,1.41711545,6.106523037,-0.961832047,-1.236641169,-1.297709942,1343.715454,2294,1308.424927,67.96459961,882.8125,312.5,0.3093581
349630.7277,502633.7188,-7.784560204,1.421903014,6.075404167,-0.763358772,-0.916030526,-1.175572515,1338.795654,2300,1311.355347,67.96459961,882.8125,320.3125,0.309757
349630.734,502641.5313,-7.779772758,1.419509292,6.0658288,-0.900763333,-1.175572515,-1.419847369,1344.53894,2293,1313.553101,67.96459961,882.8125,328.125,0.3160923
349630.74,502649.3438,-7.822860718,1.41711545,6.106523037,-0.809160292,-1.282442689,-1.862595439,1341.250977,2297,1312.820557,67.96459961,882.8125,335.9375,0.3220792
349630.75,502657.1563,-7.85637331,1.409934163,6.111310482,-0.946564913,-0.671755731,-1.603053451,1341.250977,2297,1312.087891,67.96459961,882.8125,343.75,0.3320713
349630.766,502664.9688,-7.8683424,1.421903014,6.092160225,-0.412213743,-1.06870234,-1.389312983,1343.715454,2294,1315.750977,67.96459961,882.8125,351.5625,0.3480301
349630.771,502672.7813,-7.801316738,1.41711545,6.089766502,-0.274809152,-0.732824445,-1.419847369,1340.431519,2298,1317.94873,67.96459961,882.8125,359.375,0.3530771
349630.7819,502680.5938,-7.755835056,1.407540441,6.111310482,-0.48854962,-0.671755731,-1.664122105,1344.53894,2293,1323.80957,67.96459961,882.8125,367.1875,0.3640076
349630.7822,502688.4063,-7.755835056,1.431478143,6.08737278,-0.610687017,-0.076335877,-1.358778596,1342.892944,2295,1326.007324,67.96459961,882.8125,375,0.3642879
349630.7889,502696.2188,-7.806104183,1.424296856,6.106523037,-0.564885497,-0.183206111,-1.51145041,1340.431519,2298,1328.937744,67.96459961,882.8125,382.8125,0.3709728
349630.8049,502704.0313,-7.806104183,1.441053271,6.096948147,-0.793893158,-0.091603056,-1.358778596,1344.53894,2293,1328.205078,67.96459961,882.8125,390.625,0.3869377
349630.8099,502711.8438,-7.827648163,1.405146599,6.058647633,-0.992366433,0.015267176,-1.435114503,1338.795654,2300,1328.205078,67.96459961,882.8125,398.4375,0.3919342
349630.819,502719.6563,-7.863554955,1.390783906,6.058647633,-1.328244328,-0.24427481,-1.526717544,1342.892944,2295,1326.007324,67.96459961,882.8125,406.25,0.401053
349630.8248,502727.4688,-7.894673824,1.376421332,6.041891098,-0.4427481,-0.854961812,-1.419847369,1342.892944,2295,1322.34436,67.96459961,882.8125,414.0625,0.4068861
349630.8378,502735.2813,-7.916217804,1.378815055,6.058647633,-0.152671754,-1.267175555,-1.282442689,1339.613037,2299,1316.483521,67.96459961,882.8125,421.875,0.4198634
349630.8472,502743.0938,-7.901854992,1.412328005,6.05625391,-0.687022924,-1.236641169,-1.206106901,1344.53894,2293,1310.622681,67.96459961,882.8125,429.6875,0.4293168
349630.8475,502750.9063,-7.837223053,1.414721727,6.073009968,-0.717557251,-1.633587837,-1.46564889,1340.431519,2298,1308.424927,67.96459961,882.8125,437.5,0.4296056
349630.8478,502758.7188,-7.818072796,1.400359035,6.070616245,-0.351145029,-1.587786317,-1.740458012,1342.071411,2296,1308.424927,67.96459961,882.8125,445.3125,0.429889
349630.8593,502766.5313,-7.830041885,1.385996461,6.075404167,-0.503816783,-1.587786317,-1.496183157,1344.53894,2293,1309.890137,67.96459961,882.8125,453.125,0.4413677
349630.8693,502774.3438,-7.839616776,1.407540441,6.073009968,-0.381679386,-1.526717544,-1.328244328,1340.431519,2298,1312.087891,67.96459961,882.8125,460.9375,0.451355
349630.9001,502782.1563,-7.830041885,1.448234558,6.08737278,-0.19847329,-1.832061052,-1.160305381,1344.53894,2293,1313.553101,67.96459961,882.8125,468.75,0.4821913
349630.9021,502789.9688,-7.763016224,1.464990973,6.116097927,-0.519083977,-1.282442689,-1.572519064,1342.071411,2296,1321.611694,67.96459961,882.8125,476.5625,0.484189
349630.9027,502797.7813,-7.784560204,1.431478143,6.101735592,-1.02290082,-1.389312983,-1.435114503,1342.892944,2295,1336.996338,67.96459961,882.8125,484.375,0.4847325
349630.903,502805.5938,-7.803710461,1.421903014,6.094553947,-0.992366433,-1.526717544,-1.312977076,1345.363403,2292,1357.509155,67.96459961,882.8125,492.1875,0.4850968
349630.9052,502813.4063,-7.820466995,1.402752876,6.089766502,-1.007633567,-0.916030526,-1.358778596,1340.431519,2298,1388.278442,67.96459961,882.8125,500,0.4872505
349630.919,502821.2188,-7.844404697,1.407540441,6.106523037,-0.854961812,-0.946564913,-1.083969474,1346.188843,2291,1424.175781,67.96459961,882.8125,507.8125,0.5011112
349630.9251,502829.0313,-7.837223053,1.374027491,6.053860188,-0.824427485,-0.809160292,-1.206106901,1342.071411,2296,1466.666626,67.96459961,882.8125,515.625,0.5071526
349630.9361,502836.8438,-7.853979588,1.414721727,6.063435078,-0.946564913,-0.748091578,-1.328244328,1342.071411,2296,1515.018311,67.96459961,882.8125,523.4375,0.5181359
349630.944,502844.6563,-7.842010975,1.385996461,6.058647633,-0.656488538,-1.099236608,-1.175572515,1346.188843,2291,1567.765625,67.96459961,882.8125,531.25,0.5260721
349630.9529,502852.4688,-7.820466995,1.400359035,6.070616245,-0.992366433,-1.11450386,-1.480916023,1341.250977,2297,1622.710571,67.96459961,882.8125,539.0625,0.5350263
349630.9599,502860.2813,-7.803710461,1.443446994,6.053860188,-0.97709924,-0.870229006,-1.526717544,1346.188843,2291,1679.12085,67.96459961,882.8125,546.875,0.5420137
349630.9602,502868.0938,-7.830041885,1.400359035,6.070616245,-1.099236608,-1.297709942,-1.480916023,1344.53894,2293,1730.402954,67.96459961,882.8125,554.6875,0.5422925
349630.9711,502875.9063,-7.853979588,1.388390183,6.063435078,-0.854961812,-1.221374035,-1.46564889,1342.892944,2295,1774.359009,67.96459961,882.8125,562.5,0.5532155
349630.9779,502883.7188,-7.806104183,1.393177748,6.099341869,-0.931297719,-1.374045849,-1.160305381,1347.015381,2290,1813.186768,67.96459961,882.8125,570.3125,0.5600268
349630.9889,502891.5313,-7.789347649,1.393177748,6.106523037,-0.641221344,-0.809160292,-1.587786317,1342.892944,2295,1841.758301,67.96459961,882.8125,578.125,0.5709446
349630.9968,502899.3438,-7.813285351,1.381208897,6.099341869,-0.793893158,-0.717557251,-1.236641169,1344.53894,2293,1856.410278,67.96459961,882.8125,585.9375,0.5789068
349631.0039,502907.1563,-7.82525444,1.409934163,6.089766502,-1.007633567,-0.503816783,-1.206106901,1345.363403,2292,1856.410278,67.96459961,882.8125,593.75,0.5859367
349631.0148,502914.9688,-7.851585865,1.405146599,6.080191612,-0.748091578,-0.427480906,-1.083969474,1342.892944,2295,1843.223389,67.96459961,882.8125,601.5625,0.5968834
349631.0199,502922.7813,-7.822860718,1.374027491,6.084979057,-0.48854962,-0.610687017,-1.099236608,1347.842896,2289,1820.512817,67.96459961,882.8125,609.375,0.6019481
349631.0288,502930.5938,-7.782166481,1.381208897,6.058647633,-0.167938933,-0.137404576,-1.11450386,1344.53894,2293,1791.941406,67.96459961,882.8125,617.1875,0.6108319
349631.0358,502938.4063,-7.786953926,1.41711545,6.080191612,-0.290076345,-0.19847329,-1.190839648,1346.188843,2291,1754.578735,67.96459961,882.8125,625,0.6178579
349631.0497,502946.2188,-7.806104183,1.39557147,6.070616245,-0.381679386,-0.167938933,-1.02290082,1347.015381,2290,1713.553101,67.96459961,882.8125,632.8125,0.6317719
349631.0557,502954.0313,-7.84679842,1.419509292,6.061041355,-0.763358772,0.030534351,-1.236641169,1343.715454,2294,1673.260132,67.96459961,882.8125,640.625,0.6377895
349631.0561,502961.8438,-7.87791729,1.405146599,6.061041355,-0.916030526,-0.305343509,-1.389312983,1347.842896,2289,1631.501831,67.96459961,882.8125,648.4375,0.6382165
349631.076,502969.6563,-7.901854992,1.407540441,6.058647633,-0.641221344,-0.473282456,-1.480916023,1344.53894,2293,1588.278442,67.96459961,882.8125,656.25,0.6580454
349631.0764,502977.4688,-7.892280102,1.412328005,6.061041355,-0.473282456,-0.961832047,-1.190839648,1346.188843,2291,1549.450562,67.96459961,882.8125,664.0625,0.6584484
349631.0768,502985.2813,-7.882704735,1.39557147,6.063435078,-0.549618304,-1.038167953,-1.480916023,1348.671509,2288,1517.216064,67.96459961,882.8125,671.875,0.658845
349631.0937,502993.0938,-7.822860718,1.41711545,6.07779789,-0.641221344,-0.870229006,-1.679389358,1343.715454,2294,1490.109863,76.80000305,781.25,679.6875,0.675784
349631.0941,503000.9063,-7.832435608,1.400359035,6.051465988,-0.763358772,-1.358778596,-1.435114503,1348.671509,2288,1465.934082,76.80000305,781.25,687.5,0.6761763
349631.1008,503008.7188,-7.806104183,1.405146599,6.051465988,-0.320610672,-1.343511462,-1.496183157,1347.015381,2290,1447.619019,76.80000305,781.25,695.3125,0.6828321
349631.1086,503016.5313,-7.839616776,1.385996461,6.032316208,-0.595419824,-1.404580116,-1.480916023,1346.188843,2291,1432.967041,76.80000305,781.25,703.125,0.6906819
349631.1206,503024.3438,-7.827648163,1.414721727,6.041891098,-0.549618304,-1.129770994,-1.404580116,1349.501099,2287,1421.978027,76.80000305,781.25,710.9375,0.7026494
349631.1306,503032.1563,-7.801316738,1.41711545,6.063435078,-0.412213743,-1.053435087,-1.450381637,1344.53894,2293,1409.523804,76.80000305,781.25,718.75,0.7126368
349631.1365,503039.9688,-7.779772758,1.424296856,6.0658288,-0.48854962,-1.435114503,-1.343511462,1348.671509,2288,1401.46521,76.80000305,781.25,726.5625,0.718601
349631.1445,503047.7813,-7.832435608,1.426690578,6.049072266,-0.702290058,-1.389312983,-1.770992398,1347.842896,2289,1396.337036,76.80000305,781.25,734.375,0.7266228
349631.1565,503055.5938,-7.894673824,1.400359035,6.092160225,-0.778625965,-1.694656491,-1.862595439,1345.363403,2292,1391.941406,76.80000305,781.25,742.1875,0.738553
349631.1625,503063.4063,-7.865948677,1.424296856,6.075404167,-0.931297719,-1.664122105,-1.297709942,1350.331665,2286,1390.476196,76.80000305,781.25,750,0.7445967
349631.1704,503071.2188,-7.839616776,1.402752876,6.082585335,-0.793893158,-1.633587837,-1.419847369,1346.188843,2291,1388.278442,76.80000305,781.25,757.8125,0.7524489
349631.1707,503079.0313,-7.810891628,1.421903014,6.068222523,-0.610687017,-1.55725193,-1.587786317,1349.501099,2287,1385.348022,76.80000305,781.25,765.625,0.7527501
349631.1803,503086.8438,-7.794135094,1.412328005,6.106523037,-0.900763333,-1.709923625,-1.786259532,1348.671509,2288,1383.150146,76.80000305,781.25,773.4375,0.7624205
349631.1886,503094.6563,-7.842010975,1.383602619,6.096948147,-0.854961812,-1.679389358,-1.389312983,1346.188843,2291,1380.952393,76.80000305,781.25,781.25,0.7706504
349631.1974,503102.4688,-7.8683424,1.388390183,6.094553947,-0.931297719,-1.526717544,-1.297709942,1351.16333,2285,1383.882813,76.80000305,781.25,789.0625,0.779453
349631.2093,503110.2813,-7.806104183,1.397965312,6.120885849,-0.473282456,-1.083969474,-1.038167953,1347.842896,2289,1390.476196,76.80000305,781.25,796.875,0.7914072
349631.2096,503118.0938,-7.779772758,1.378815055,6.080191612,-0.595419824,-0.549618304,-1.282442689,1348.671509,2288,1398.53479,76.80000305,781.25,804.6875,0.7916994
349631.2185,503125.9063,-7.753440857,1.405146599,6.123279572,-0.625954211,-0.412213743,-1.55725193,1351.16333,2285,1405.86084,76.80000305,781.25,812.5,0.8005786
349631.2274,503133.7188,-7.782166481,1.412328005,6.128067017,-0.549618304,0.122137405,-1.145038128,1347.015381,2290,1413.186768,76.80000305,781.25,820.3125,0.8095177
349631.2343,503141.5313,-7.791741371,1.400359035,6.082585335,-0.305343509,0.320610672,-1.053435087,1351.995972,2284,1421.245361,76.80000305,781.25,828.125,0.8163522
349631.2428,503149.3438,-7.801316738,1.402752876,6.058647633,-0.412213743,0.045801528,-0.946564913,1348.671509,2288,1429.304077,76.80000305,781.25,835.9375,0.8248535
349631.2517,503157.1563,-7.82525444,1.424296856,6.05625391,-0.427480906,-0.015267176,-1.297709942,1348.671509,2288,1432.967041,76.80000305,781.25,843.75,0.8338257
349631.2647,503164.9688,-7.889886379,1.42908442,6.061041355,-0.549618304,-0.122137405,-1.648854971,1351.995972,2284,1435.164795,76.80000305,781.25,851.5625,0.846803
349631.2652,503172.7813,-7.880311012,1.431478143,6.063435078,-0.4427481,-0.656488538,-1.694656491,1347.842896,2289,1432.967041,76.80000305,781.25,859.375,0.8472787
349631.2757,503180.5938,-7.885098934,1.424296856,6.029922009,-0.610687017,-0.961832047,-1.328244328,1351.16333,2285,1430.036621,76.80000305,781.25,867.1875,0.8577801
349631.2817,503188.4063,-7.87791729,1.385996461,6.013165951,-0.748091578,-1.404580116,-1.587786317,1350.331665,2286,1425.640991,76.80000305,781.25,875,0.8637604
349631.2896,503196.2188,-7.904248714,1.388390183,6.008378029,-0.595419824,-1.450381637,-1.038167953,1348.671509,2288,1421.245361,76.80000305,781.25,882.8125,0.8717159
349631.3046,503204.0313,-7.863554955,1.426690578,6.027528286,-1.221374035,-1.740458012,-1.46564889,1353.664307,2282,1413.186768,76.80000305,781.25,890.625,0.8866796
349631.305,503211.8438,-7.84679842,1.433871984,6.049072266,-0.916030526,-2.13740468,-1.648854971,1348.671509,2288,1404.39563,76.80000305,781.25,898.4375,0.8870496
349631.3147,503219.6563,-7.849192142,1.409934163,6.080191612,-0.900763333,-2.13740468,-1.236641169,1351.16333,2285,1389.010986,76.80000305,781.25,906.25,0.8967503
349631.3205,503227.4688,-7.818072796,1.409934163,6.116097927,-0.763358772,-1.770992398,-1.206106901,1351.16333,2285,1372.893799,76.80000305,781.25,914.0625,0.9026203
349631.3286,503235.2813,-7.803710461,1.405146599,6.075404167,-0.58015269,-1.984732866,-1.404580116,1349.501099,2287,1356.043945,76.80000305,781.25,921.875,0.9106463
349631.3444,503243.0938,-7.798923016,1.397965312,6.075404167,-0.763358772,-1.832061052,-1.328244328,1352.82959,2283,1340.659302,76.80000305,781.25,929.6875,0.9265125
349631.3465,503250.9063,-7.818072796,1.397965312,6.094553947,-0.778625965,-1.328244328,-1.618320584,1349.501099,2287,1325.27478,76.80000305,781.25,937.5,0.9285849
349631.3574,503258.7188,-7.784560204,1.388390183,6.096948147,-0.870229006,-1.145038128,-1.450381637,1351.995972,2284,1314.285767,76.80000305,781.25,945.3125,0.9394296
349631.3579,503266.5313,-7.770197392,1.405146599,6.092160225,-0.931297719,-1.007633567,-1.55725193,1352.82959,2283,1309.157471,76.80000305,781.25,953.125,0.9399543
349631.3674,503274.3438,-7.808497906,1.385996461,6.111310482,-0.717557251,-0.748091578,-1.435114503,1348.671509,2288,1309.157471,76.80000305,781.25,960.9375,0.9494971
349631.3825,503282.1563,-7.796528816,1.385996461,6.096948147,-0.473282456,-0.396946579,-1.236641169,1353.664307,2282,1307.692261,76.80000305,781.25,968.75,0.9645777
349631.383,503289.9688,-7.839616776,1.390783906,6.084979057,-0.656488538,-0.48854962,-0.961832047,1350.331665,2286,1307.692261,76.80000305,781.25,976.5625,0.9650505
349631.3963,503297.7813,-7.84679842,1.39557147,6.070616245,-0.48854962,-0.320610672,-1.206106901,1351.995972,2284,1308.424927,76.80000305,781.25,984.375,0.9783835
349631.3967,503305.5938,-7.832435608,1.405146599,6.061041355,-0.58015269,-0.4427481,-1.160305381,1353.664307,2282,1310.622681,76.80000305,781.25,992.1875,0.9788052
349631.4086,503313.4063,-7.839616776,1.400359035,6.068222523,-0.503816783,-0.48854962,-0.717557251,1349.501099,2287,1311.355347,76.80000305,781.25,1000,0.9906585
349631.4203,503321.2188,-7.830041885,1.374027491,6.046678543,-0.732824445,-0.213740453,-0.687022924,1354.5,2281,1312.087891,76.80000305,781.25,1007.8125,1.0023793
349631.4207,503329.0313,-7.8683424,1.369239926,6.029922009,-0.595419824,-0.549618304,-1.11450386,1351.995972,2284,1313.553101,76.80000305,781.25,1015.625,1.0028183
349631.4342,503336.8438,-7.87791729,1.383602619,6.044284821,-0.458015263,-0.916030526,-0.870229006,1350.331665,2286,1315.018311,76.80000305,781.25,1023.4375,1.016316
349631.4346,503344.6563,-7.861160755,1.39557147,6.039497375,-0.4427481,-1.038167953,-1.083969474,1354.5,2281,1312.820557,76.80000305,781.25,1031.25,1.0167238
349631.4482,503352.4688,-7.83482933,1.414721727,6.051465988,-0.564885497,-0.870229006,-1.297709942,1349.501099,2287,1307.692261,76.80000305,781.25,1039.0625,1.0302869
349631.4583,503360.2813,-7.794135094,1.424296856,6.053860188,-0.53435117,-1.02290082,-1.328244328,1352.82959,2283,1304.029297,76.80000305,781.25,1046.875,1.0403553
349631.4587,503368.0938,-7.861160755,1.390783906,6.058647633,-0.839694679,-1.236641169,-1.587786317,1352.82959,2283,1297.435913,76.80000305,781.25,1054.6875,1.040806
349631.4732,503375.9063,-7.901854992,1.402752876,6.07779789,-0.519083977,-1.358778596,-1.190839648,1350.331665,2286,1292.307739,76.80000305,781.25,1062.5,1.0552936
349631.4791,503383.7188,-7.870736122,1.426690578,6.08737278,-0.229007632,-1.236641169,-1.145038128,1355.336792,2280,1291.575073,76.80000305,781.25,1070.3125,1.0612005
349631.4871,503391.5313,-7.767803669,1.41711545,6.101735592,-0.549618304,-0.885496199,-1.664122105,1351.16333,2285,1290.109863,76.80000305,781.25,1078.125,1.0691793
349631.4951,503399.3438,-7.755835056,1.421903014,6.089766502,-0.702290058,-0.519083977,-1.587786317,1353.664307,2282,1287.179443,76.80000305,781.25,1085.9375,1.0771347
349631.503,503407.1563,-7.822860718,1.39557147,6.073009968,-1.083969474,-0.671755731,-1.603053451,1354.5,2281,1282.05127,76.80000305,781.25,1093.75,1.0851052
349631.5131,503414.9688,-7.863554955,1.39557147,6.068222523,-0.763358772,-0.916030526,-1.480916023,1351.16333,2285,1279.853516,76.80000305,781.25,1101.5625,1.095135
349631.5135,503422.7813,-7.865948677,1.385996461,6.051465988,-0.549618304,-0.916030526,-1.129770994,1354.5,2281,1280.58606,76.80000305,781.25,1109.375,1.095585
349631.53,503430.5938,-7.803710461,1.402752876,6.058647633,-0.549618304,-0.946564913,-1.145038128,1351.16333,2285,1283.516479,76.80000305,781.25,1117.1875,1.112067
349631.5304,503438.4063,-7.786953926,1.397965312,6.041891098,-0.809160292,-0.885496199,-1.282442689,1353.664307,2282,1284.981689,76.80000305,781.25,1125,1.1125217
349631.54,503446.2188,-7.83482933,1.397965312,6.073009968,-1.038167953,-0.931297719,-1.450381637,1355.336792,2280,1289.377319,76.80000305,781.25,1132.8125,1.1220372
349631.5519,503454.0313,-7.865948677,1.390783906,6.07779789,-0.961832047,-1.145038128,-1.343511462,1351.995972,2284,1298.901123,76.80000305,781.25,1140.625,1.1339814
349631.5522,503461.8438,-7.899461269,1.412328005,6.089766502,-0.900763333,-1.145038128,-1.11450386,1355.336792,2280,1307.692261,76.80000305,781.25,1148.4375,1.1342704
349631.562,503469.6563,-7.87791729,1.405146599,6.080191612,-0.519083977,-0.900763333,-0.97709924,1352.82959,2283,1316.483521,76.80000305,781.25,1156.25,1.1440752
349631.5699,503477.4688,-7.815679073,1.405146599,6.063435078,-0.53435117,-1.404580116,-1.06870234,1352.82959,2283,1325.27478,76.80000305,781.25,1164.0625,1.1519717
349631.5818,503485.2813,-7.830041885,1.419509292,6.0658288,-0.503816783,-1.435114503,-1.267175555,1357.013428,2278,1331.135498,76.80000305,781.25,1171.875,1.1639249
349631.5928,503493.0938,-7.839616776,1.397965312,6.075404167,-0.564885497,-0.916030526,-1.02290082,1351.995972,2284,1338.461548,76.80000305,781.25,1179.6875,1.1749001
349631.599,503500.9063,-7.798923016,1.414721727,6.068222523,-0.351145029,-1.190839648,-1.145038128,1356.174561,2279,1341.391968,76.80000305,781.25,1187.5,1.1810732
349631.6068,503508.7188,-7.779772758,1.419509292,6.063435078,-0.351145029,-0.961832047,-1.343511462,1354.5,2281,1339.926758,76.80000305,781.25,1195.3125,1.1888305
349631.6167,503516.5313,-7.789347649,1.407540441,6.075404167,-0.687022924,-0.671755731,-1.480916023,1353.664307,2282,1336.996338,76.80000305,781.25,1203.125,1.1987992
349631.6188,503524.3438,-7.85637331,1.400359035,6.075404167,-0.748091578,-0.763358772,-1.099236608,1357.013428,2278,1333.333374,76.80000305,781.25,1210.9375,1.2008727
349631.6337,503532.1563,-7.851585865,1.402752876,6.051465988,-0.19847329,-0.97709924,-1.297709942,1352.82959,2283,1327.472534,76.80000305,781.25,1218.75,1.2157665
349631.634,503539.9688,-7.822860718,1.400359035,6.051465988,-0.320610672,-1.02290082,-1.236641169,1356.174561,2279,1321.611694,76.80000305,781.25,1226.5625,1.2160573
349631.6437,503547.7813,-7.832435608,1.414721727,6.061041355,-0.671755731,-1.221374035,-1.328244328,1356.174561,2279,1313.553101,76.80000305,781.25,1234.375,1.2257525
349631.6516,503555.5938,-7.827648163,1.407540441,6.046678543,-0.610687017,-1.404580116,-1.236641169,1353.664307,2282,1307.692261,76.80000305,781.25,1242.1875,1.2336962
349631.6577,503563.4063,-7.849192142,1.388390183,6.070616245,-0.549618304,-1.251908422,-1.038167953,1357.853271,2277,1296.703247,76.80000305,781.25,1250,1.2397537
349631.6676,503571.2188,-7.863554955,1.39557147,6.070616245,-0.58015269,-0.97709924,-1.160305381,1353.664307,2282,1290.109863,76.80000305,781.25,1257.8125,1.2496488
349631.6696,503579.0313,-7.827648163,1.390783906,6.099341869,-0.687022924,-1.251908422,-0.839694679,1354.5,2281,1286.446899,76.80000305,781.25,1265.625,1.251668
349631.6877,503586.8438,-7.777379036,1.407540441,6.058647633,-0.625954211,-1.389312983,-0.97709924,1357.013428,2278,1287.179443,76.80000305,781.25,1273.4375,1.2697609
349631.688,503594.6563,-7.815679073,1.405146599,6.075404167,-0.687022924,-1.358778596,-1.083969474,1353.664307,2282,1290.109863,76.80000305,781.25,1281.25,1.2700532
349631.6975,503602.4688,-7.849192142,1.412328005,6.068222523,-0.549618304,-1.312977076,-1.007633567,1358.694214,2276,1294.505493,76.80000305,781.25,1289.0625,1.279624
349631.7155,503610.2813,-7.839616776,1.421903014,6.075404167,-0.53435117,-1.435114503,-0.763358772,1355.336792,2280,1297.435913,76.80000305,781.25,1296.875,1.2976048
349631.7158,503618.0938,-7.815679073,1.421903014,6.082585335,-0.58015269,-1.404580116,-0.946564913,1355.336792,2280,1298.901123,76.80000305,781.25,1304.6875,1.2978946
349631.7197,503625.9063,-7.782166481,1.414721727,6.068222523,-0.503816783,-1.251908422,-1.312977076,1357.853271,2277,1301.098877,76.80000305,781.25,1312.5,1.301766
349631.7315,503633.7188,-7.794135094,1.43865943,6.08737278,-0.671755731,-1.282442689,-1.282442689,1353.664307,2282,1304.761963,76.80000305,781.25,1320.3125,1.3135373
349631.7444,503641.5313,-7.803710461,1.460203528,6.089766502,-0.916030526,-0.870229006,-1.572519064,1357.853271,2277,1307.692261,76.80000305,781.25,1328.125,1.3265009
349631.7448,503649.3438,-7.798923016,1.431478143,6.108916759,-0.854961812,-0.992366433,-1.419847369,1355.336792,2280,1309.157471,76.80000305,781.25,1335.9375,1.3269109
349631.7504,503657.1563,-7.794135094,1.39557147,6.096948147,-0.900763333,-0.931297719,-1.694656491,1355.336792,2280,1309.157471,76.80000305,781.25,1343.75,1.3325179
349631.7664,503664.9688,-7.842010975,1.419509292,6.106523037,-1.053435087,-0.732824445,-1.496183157,1358.694214,2276,1308.424927,76.80000305,781.25,1351.5625,1.3484477
349631.7668,503672.7813,-7.820466995,1.41711545,6.094553947,-0.854961812,-0.320610672,-1.221374035,1354.5,2281,1303.296753,76.80000305,781.25,1359.375,1.3488538
349631.7783,503680.5938,-7.794135094,1.402752876,6.084979057,-0.839694679,-0.366412222,-1.404580116,1358.694214,2276,1298.901123,76.80000305,781.25,1367.1875,1.3603995
349631.7833,503688.4063,-7.803710461,1.421903014,6.07779789,-1.007633567,-0.458015263,-1.343511462,1357.013428,2278,1296.703247,76.80000305,781.25,1375,1.3653724
349631.7983,503696.2188,-7.815679073,1.41711545,6.068222523,-1.02290082,-0.427480906,-1.664122105,1355.336792,2280,1295.970703,76.80000305,781.25,1382.8125,1.3803479
349631.8053,503704.0313,-7.873129845,1.412328005,6.039497375,-0.717557251,-0.687022924,-1.297709942,1360.37915,2274,1293.040283,76.80000305,781.25,1390.625,1.3873283
349631.8057,503711.8438,-7.880311012,1.407540441,6.020347118,-0.885496199,-0.97709924,-1.267175555,1354.5,2281,1291.575073,76.80000305,718.75,1398.4375,1.387734
349631.8135,503719.6563,-7.882704735,1.393177748,6.044284821,-0.717557251,-1.282442689,-1.190839648,1358.694214,2276,1290.109863,76.80000305,718.75,1406.25,1.3955369
349631.8193,503727.4688,-7.865948677,1.381208897,6.073009968,-0.396946579,-1.404580116,-0.900763333,1358.694214,2276,1292.307739,76.80000305,718.75,1414.0625,1.401347
349631.8292,503735.2813,-7.863554955,1.383602619,6.044284821,-0.213740453,-0.992366433,-0.793893158,1356.174561,2279,1291.575073,76.80000305,718.75,1421.875,1.4112708
349631.8451,503743.0938,-7.84679842,1.397965312,6.063435078,-0.53435117,-1.648854971,-1.267175555,1360.37915,2274,1292.307739,76.80000305,718.75,1429.6875,1.4271855
349631.8454,503750.9063,-7.84679842,1.397965312,6.05625391,-0.549618304,-1.709923625,-1.312977076,1356.174561,2279,1290.842529,76.80000305,718.75,1437.5,1.4274616
349631.8524,503758.7188,-7.813285351,1.42908442,6.058647633,-0.48854962,-1.55725193,-1.129770994,1358.694214,2276,1287.179443,76.80000305,718.75,1445.3125,1.4344512
349631.8601,503766.5313,-7.794135094,1.433871984,6.058647633,-0.53435117,-1.435114503,-1.343511462,1360.37915,2274,1286.446899,76.80000305,718.75,1453.125,1.442149
349631.8691,503774.3438,-7.796528816,1.42908442,6.092160225,-0.595419824,-1.343511462,-1.374045849,1356.174561,2279,1289.377319,76.80000305,718.75,1460.9375,1.4511754
349631.88,503782.1563,-7.830041885,1.421903014,6.08737278,-0.671755731,-1.55725193,-1.358778596,1360.37915,2274,1298.168457,76.80000305,718.75,1468.75,1.4620829
349631.882,503789.9688,-7.842010975,1.443446994,6.094553947,-1.038167953,-1.145038128,-0.992366433,1357.853271,2277,1309.157471,76.80000305,718.75,1476.5625,1.4640904
349631.894,503797.7813,-7.822860718,1.402752876,6.080191612,-0.687022924,-1.404580116,-1.038167953,1358.694214,2276,1326.007324,76.80000305,718.75,1484.375,1.4760845
349631.905,503805.5938,-7.820466995,1.402752876,6.089766502,-0.702290058,-1.312977076,-1.648854971,1360.37915,2274,1350.915771,76.80000305,718.75,1492.1875,1.487036
349631.913,503813.4063,-7.853979588,1.42908442,6.089766502,-0.503816783,-1.496183157,-1.190839648,1357.013428,2278,1388.278442,76.80000305,718.75,1500,1.4950991
349631.919,503821.2188,-7.822860718,1.41711545,6.07779789,-0.763358772,-1.374045849,-1.419847369,1361.223145,2273,1435.164795,76.80000305,718.75,1507.8125,1.501031
349631.9192,503829.0313,-7.827648163,1.407540441,6.075404167,-0.900763333,-1.221374035,-1.374045849,1358.694214,2276,1493.040283,76.80000305,718.75,1515.625,1.5013264
349631.9289,503836.8438,-7.85637331,1.405146599,6.05625391,-0.564885497,-1.160305381,-1.358778596,1357.013428,2278,1560.439575,76.80000305,718.75,1523.4375,1.5110225
349631.9389,503844.6563,-7.865948677,1.39557147,6.058647633,-0.4427481,-1.343511462,-1.358778596,1362.068237,2272,1632.967041,76.80000305,718.75,1531.25,1.5209296
349631.9509,503852.4688,-7.839616776,1.388390183,6.092160225,-0.916030526,-1.480916023,-1.740458012,1357.013428,2278,1703.296753,76.80000305,718.75,1539.0625,1.5329629
349631.9629,503860.2813,-7.798923016,1.39557147,6.111310482,-0.870229006,-0.916030526,-1.312977076,1360.37915,2274,1771.428589,76.80000305,718.75,1546.875,1.54497
349631.9633,503868.0938,-7.777379036,1.393177748,6.116097927,-0.824427485,-0.763358772,-1.190839648,1359.536133,2275,1827.838867,76.80000305,718.75,1554.6875,1.5453819
349631.9709,503875.9063,-7.743865967,1.378815055,6.094553947,-0.564885497,-0.53435117,-1.160305381,1357.853271,2277,1877.65564,76.80000305,718.75,1562.5,1.5529887
349631.9758,503883.7188,-7.763016224,1.412328005,6.092160225,-0.290076345,-0.213740453,-0.946564913,1362.068237,2272,1913.553101,76.80000305,718.75,1570.3125,1.5578927
349631.9896,503891.5313,-7.827648163,1.414721727,6.096948147,-0.931297719,-0.091603056,-1.099236608,1357.853271,2277,1937.728882,76.80000305,718.75,1578.125,1.5716399
349631.99,503899.3438,-7.827648163,1.426690578,6.0658288,-0.748091578,-0.335877866,-1.221374035,1360.37915,2274,1947.252808,76.80000305,718.75,1585.9375,1.5720585
349632.0027,503907.1563,-7.858767033,1.405146599,6.0658288,-0.595419824,-0.717557251,-1.053435087,1361.223145,2273,1942.857178,76.80000305,718.75,1593.75,1.5848258
349632.0177,503914.9688,-7.858767033,1.41711545,6.0658288,-0.229007632,-0.595419824,-1.038167953,1357.853271,2277,1926.739868,76.80000305,718.75,1601.5625,1.5997921
349632.018,503922.7813,-7.85637331,1.42908442,6.053860188,-0.625954211,-0.763358772,-1.053435087,1362.914429,2271,1897.435913,76.80000305,718.75,1609.375,1.6000702
349632.0298,503930.5938,-7.837223053,1.419509292,6.0658288,-0.778625965,-0.793893158,-1.389312983,1358.694214,2276,1854.212402,76.80000305,718.75,1617.1875,1.6118279
349632.0301,503938.4063,-7.813285351,1.424296856,6.053860188,-0.641221344,-1.06870234,-1.603053451,1360.37915,2274,1802.93042,76.80000305,718.75,1625,1.6122247
349632.0397,503946.2188,-7.851585865,1.457809687,6.051465988,-0.717557251,-1.06870234,-1.618320584,1362.068237,2272,1749.450562,76.80000305,718.75,1632.8125,1.6217427
349632.0557,503954.0313,-7.839616776,1.41711545,6.084979057,-1.160305381,-0.854961812,-1.694656491,1358.694214,2276,1694.505493,76.80000305,718.75,1640.625,1.6377395
349632.0626,503961.8438,-7.820466995,1.424296856,6.070616245,-1.282442689,-1.221374035,-1.648854971,1362.914429,2271,1639.560425,76.80000305,718.75,1648.4375,1.6447003
349632.0718,503969.6563,-7.820466995,1.405146599,6.092160225,-1.679389358,-1.221374035,-1.679389358,1359.536133,2275,1588.278442,76.80000305,718.75,1656.25,1.6539158
349632.0722,503977.4688,-7.837223053,1.412328005,6.068222523,-1.46564889,-1.007633567,-1.358778596,1360.37915,2274,1542.124512,76.80000305,718.75,1664.0625,1.6543022
349632.0785,503985.2813,-7.83482933,1.388390183,6.089766502,-1.282442689,-0.839694679,-1.374045849,1363.761597,2270,1503.296753,76.80000305,718.75,1671.875,1.6605858
349632.0935,503993.0938,-7.837223053,1.371633768,6.061041355,-1.053435087,-0.625954211,-1.496183157,1358.694214,2276,1471.794922,76.80000305,718.75,1679.6875,1.6755878
349632.0975,504000.9063,-7.82525444,1.383602619,6.0658288,-0.778625965,-0.503816783,-1.496183157,1362.914429,2271,1446.886475,76.80000305,718.75,1687.5,1.6795903
349632.1067,504008.7188,-7.842010975,1.383602619,6.063435078,-0.900763333,-0.717557251,-1.221374035,1361.223145,2273,1424.175781,76.80000305,718.75,1695.3125,1.6887655
349632.1145,504016.5313,-7.863554955,1.388390183,6.0658288,-0.427480906,-0.778625965,-1.236641169,1360.37915,2274,1407.32605,76.80000305,718.75,1703.125,1.6965439
349632.1244,504024.3438,-7.84679842,1.397965312,6.063435078,-0.076335877,-0.870229006,-1.206106901,1363.761597,2270,1398.53479,76.80000305,718.75,1710.9375,1.7065053
349632.1344,504032.1563,-7.822860718,1.421903014,6.044284821,-0.122137405,-0.717557251,-1.236641169,1359.536133,2275,1392.67395,76.80000305,718.75,1718.75,1.7164811
349632.1347,504039.9688,-7.839616776,1.421903014,6.049072266,-0.58015269,-0.946564913,-1.343511462,1362.914429,2271,1389.74353,76.80000305,718.75,1726.5625,1.7167696
349632.1424,504047.7813,-7.863554955,1.400359035,6.029922009,-0.53435117,-1.267175555,-1.267175555,1362.914429,2271,1386.813232,76.80000305,718.75,1734.375,1.7244546
349632.1487,504055.5938,-7.889886379,1.414721727,6.063435078,-0.473282456,-1.55725193,-1.618320584,1359.536133,2275,1383.882813,76.80000305,718.75,1742.1875,1.7307605
349632.1804,504063.4063,-7.875523567,1.41711545,6.061041355,-0.48854962,-1.450381637,-1.46564889,1364.609863,2269,1380.952393,76.80000305,718.75,1750,1.7624611
349632.1823,504071.2188,-7.865948677,1.419509292,6.0658288,-0.916030526,-1.587786317,-0.97709924,1360.37915,2274,1380.952393,76.80000305,718.75,1757.8125,1.7643692
349632.1827,504079.0313,-7.798923016,1.405146599,6.070616245,-0.687022924,-1.572519064,-0.992366433,1362.914429,2271,1385.348022,76.80000305,718.75,1765.625,1.7648059
349632.1831,504086.8438,-7.820466995,1.419509292,6.096948147,-0.717557251,-1.312977076,-0.992366433,1363.761597,2270,1393.406616,76.80000305,718.75,1773.4375,1.7651374
349632.1853,504094.6563,-7.820466995,1.400359035,6.096948147,-0.412213743,-0.946564913,-0.992366433,1360.37915,2274,1402.93042,76.80000305,718.75,1781.25,1.7673433
349632.1993,504102.4688,-7.818072796,1.412328005,6.075404167,-0.274809152,-1.175572515,-1.083969474,1365.459106,2268,1410.989014,76.80000305,718.75,1789.0625,1.7813399
349632.2092,504110.2813,-7.822860718,1.409934163,6.061041355,-0.717557251,-1.312977076,-1.496183157,1360.37915,2274,1416.849854,76.80000305,718.75,1796.875,1.7913167
349632.2096,504118.0938,-7.830041885,1.421903014,6.068222523,-0.992366433,-1.297709942,-1.343511462,1362.914429,2271,1422.710571,76.80000305,718.75,1804.6875,1.7916499
349632.2218,504125.9063,-7.808497906,1.431478143,6.089766502,-0.610687017,-1.450381637,-1.450381637,1365.459106,2268,1432.967041,76.80000305,718.75,1812.5,1.8038302
349632.2277,504133.7188,-7.777379036,1.400359035,6.118492126,-0.549618304,-0.793893158,-1.343511462,1360.37915,2274,1444.688599,76.80000305,718.75,1820.3125,1.8097335
349632.2376,504141.5313,-7.803710461,1.397965312,6.03470993,-0.4427481,-0.870229006,-1.236641169,1365.459106,2268,1453.479858,76.80000305,718.75,1828.125,1.8196881
349632.2477,504149.3438,-7.849192142,1.390783906,6.058647633,-0.53435117,-1.11450386,-1.343511462,1362.068237,2272,1455.677612,76.80000305,718.75,1835.9375,1.8297499
349632.2526,504157.1563,-7.870736122,1.426690578,6.058647633,-0.473282456,-1.02290082,-1.389312983,1362.068237,2272,1455.677612,76.80000305,718.75,1843.75,1.8346439
349632.2626,504164.9688,-7.844404697,1.426690578,6.070616245,-0.53435117,-0.961832047,-1.206106901,1365.459106,2268,1449.816895,76.80000305,718.75,1851.5625,1.8446465
349632.2686,504172.7813,-7.813285351,1.400359035,6.039497375,-0.641221344,-1.450381637,-1.343511462,1361.223145,2273,1446.886475,76.80000305,718.75,1859.375,1.8506648
349632.2825,504180.5938,-7.813285351,1.39557147,6.032316208,-0.763358772,-1.587786317,-1.435114503,1365.459106,2268,1445.421265,76.80000305,718.75,1867.1875,1.8646187
349632.2829,504188.4063,-7.885098934,1.414721727,6.053860188,-0.412213743,-1.801526666,-1.282442689,1364.609863,2269,1444.688599,76.80000305,718.75,1875,1.8650154
349632.2915,504196.2188,-7.853979588,1.39557147,6.07779789,-0.732824445,-1.755725145,-1.328244328,1362.068237,2272,1441.025635,76.80000305,718.75,1882.8125,1.8735658
349632.3015,504204.0313,-7.830041885,1.402752876,6.075404167,-0.748091578,-1.618320584,-1.06870234,1366.309448,2267,1437.362671,76.80000305,718.75,1890.625,1.8835625
349632.3019,504211.8438,-7.794135094,1.388390183,6.084979057,-0.732824445,-1.55725193,-1.190839648,1361.223145,2273,1430.769287,76.80000305,718.75,1898.4375,1.8839748
349632.3136,504219.6563,-7.779772758,1.381208897,6.070616245,-0.595419824,-1.847328186,-1.129770994,1365.459106,2268,1420.512817,76.80000305,718.75,1906.25,1.8956905
349632.3214,504227.4688,-7.84679842,1.421903014,6.106523037,-0.412213743,-1.297709942,-1.083969474,1364.609863,2269,1407.32605,76.80000305,718.75,1914.0625,1.9034501
349632.3313,504235.2813,-7.832435608,1.419509292,6.089766502,-0.48854962,-1.007633567,-1.02290082,1362.068237,2272,1394.871826,76.80000305,718.75,1921.875,1.9134172
349632.3543,504243.0938,-7.810891628,1.421903014,6.125673294,-0.229007632,-0.778625965,-0.916030526,1366.309448,2267,1383.882813,76.80000305,718.75,1929.6875,1.9364208
349632.3563,504250.9063,-7.719928265,1.388390183,6.128067017,-0.030534351,-0.320610672,-0.946564913,1362.914429,2271,1372.893799,76.80000305,718.75,1937.5,1.9383795
349632.3581,504258.7188,-7.700778008,1.419509292,6.099341869,0.137404576,0.137404576,-1.221374035,1363.761597,2270,1356.776611,76.80000305,718.75,1945.3125,1.9401708
349632.3582,504266.5313,-7.782166481,1.41711545,6.08737278,-0.213740453,0.503816783,-1.526717544,1365.459106,2268,1339.926758,76.80000305,718.75,1953.125,1.9402524
349632.3683,504274.3438,-7.837223053,1.436265707,6.080191612,-0.213740453,0.290076345,-1.664122105,1361.223145,2273,1324.542114,76.80000305,718.75,1960.9375,1.9503843
349632.3813,504282.1563,-7.851585865,1.436265707,6.063435078,0.183206111,0.045801528,-1.190839648,1367.160889,2266,1311.355347,76.80000305,718.75,1968.75,1.9633657
349632.3902,504289.9688,-7.84679842,1.405146599,6.041891098,0.015267176,0,-1.11450386,1363.761597,2270,1301.831543,76.80000305,718.75,1976.5625,1.9723026
349632.4002,504297.7813,-7.851585865,1.421903014,6.05625391,-0.396946579,-0.183206111,-1.267175555,1364.609863,2269,1300.366333,76.80000305,718.75,1984.375,1.9822657
349632.4006,504305.5938,-7.889886379,1.424296856,6.051465988,-0.564885497,-0.625954211,-1.206106901,1366.309448,2267,1297.435913,76.80000305,718.75,1992.1875,1.9827137
349632.4065,504313.4063,-7.873129845,1.409934163,6.029922009,-0.396946579,-0.625954211,-1.221374035,1362.914429,2271,1293.040283,76.80000305,718.75,2000,1.9886221
349632.4162,504321.2188,-7.853979588,1.433871984,6.003590584,-0.946564913,-0.961832047,-1.297709942,1367.160889,2266,1287.912109,76.80000305,718.75,2007.8125,1.998249
349632.4241,504329.0313,-7.853979588,1.419509292,6.046678543,-1.145038128,-1.206106901,-1.328244328,1365.459106,2268,1284.249023,76.80000305,718.75,2015.625,2.0062141
349632.4322,504336.8438,-7.892280102,1.421903014,6.053860188,-1.11450386,-1.435114503,-1.099236608,1362.914429,2271,1280.58606,76.80000305,718.75,2023.4375,2.0142963
349632.4441,504344.6563,-7.842010975,1.400359035,6.061041355,-0.824427485,-1.664122105,-0.931297719,1366.309448,2267,1279.853516,76.80000305,718.75,2031.25,2.026225
349632.4501,504352.4688,-7.813285351,1.407540441,6.068222523,-0.717557251,-1.343511462,-1.007633567,1362.914429,2271,1281.318726,76.80000305,718.75,2039.0625,2.0321617
349632.4601,504360.2813,-7.772591114,1.431478143,6.089766502,-0.549618304,-1.206106901,-1.175572515,1366.309448,2267,1282.783936,76.80000305,718.75,2046.875,2.0421492
349632.47,504368.0938,-7.782166481,1.433871984,6.094553947,-0.702290058,-0.900763333,-1.11450386,1365.459106,2268,1284.249023,76.80000305,718.75,2054.6875,2.0521083
349632.4783,504375.9063,-7.796528816,1.431478143,6.070616245,-0.885496199,-0.900763333,-1.312977076,1363.761597,2270,1285.714233,76.80000305,718.75,2062.5,2.0603936
349632.4787,504383.7188,-7.853979588,1.414721727,6.058647633,-0.839694679,-0.854961812,-1.496183157,1367.160889,2266,1286.446899,76.80000305,718.75,2070.3125,2.060815
349632.4975,504391.5313,-7.818072796,1.421903014,6.061041355,-0.564885497,-0.97709924,-1.419847369,1363.761597,2270,1283.516479,76.80000305,718.75,2078.125,2.0795788
349632.4978,504399.3438,-7.830041885,1.388390183,6.061041355,-0.595419824,-0.839694679,-1.328244328,1366.309448,2267,1278.388306,76.80000305,718.75,2085.9375,2.0798656
349632.508,504407.1563,-7.83482933,1.409934163,6.044284821,-1.02290082,-1.053435087,-1.51145041,1366.309448,2267,1273.260132,76.80000305,718.75,2093.75,2.0900355
349632.515,504414.9688,-7.873129845,1.385996461,6.046678543,-0.97709924,-1.389312983,-1.236641169,1362.914429,2271,1273.260132,76.80000305,718.75,2101.5625,2.0970405
349632.5154,504422.7813,-7.882704735,1.402752876,6.05625391,-1.007633567,-1.832061052,-1.404580116,1368.866943,2264,1280.58606,76.80000305,718.75,2109.375,2.0975231
349632.5258,504430.5938,-7.892280102,1.400359035,6.07779789,-0.564885497,-1.95419848,-1.11450386,1364.609863,2269,1290.842529,76.80000305,718.75,2117.1875,2.1079269
349632.5338,504438.4063,-7.808497906,1.390783906,6.084979057,-0.641221344,-1.603053451,-1.11450386,1366.309448,2267,1301.098877,76.80000305,718.75,2125,2.1158915
349632.5418,504446.2188,-7.789347649,1.407540441,6.094553947,-0.549618304,-1.679389358,-1.358778596,1368.013428,2265,1306.227051,76.80000305,718.75,2132.8125,2.1239202
349632.5538,504454.0313,-7.791741371,1.41711545,6.068222523,-0.53435117,-1.389312983,-1.206106901,1363.761597,2270,1313.553101,76.80000305,718.75,2140.625,2.1358331
349632.554,504461.8438,-7.820466995,1.41711545,6.05625391,-0.748091578,-1.374045849,-1.312977076,1368.013428,2265,1319.41394,76.80000305,718.75,2148.4375,2.1361118
349632.5639,504469.6563,-7.827648163,1.426690578,6.053860188,-0.58015269,-1.267175555,-1.343511462,1366.309448,2267,1323.80957,76.80000305,718.75,2156.25,2.1459433
349632.5738,504477.4688,-7.801316738,1.412328005,6.051465988,-0.656488538,-1.190839648,-1.083969474,1366.309448,2267,1328.937744,78.36734772,765.625,2164.0625,2.1558884
349632.5798,504485.2813,-7.782166481,1.41711545,6.053860188,-0.809160292,-1.129770994,-1.618320584,1368.866943,2264,1331.868164,78.36734772,765.625,2171.875,2.1618627
349632.5938,504493.0938,-7.842010975,1.397965312,6.063435078,-1.053435087,-1.267175555,-1.496183157,1363.761597,2270,1333.333374,78.36734772,765.625,2179.6875,2.1758968
349632.6057,504500.9063,-7.853979588,1.393177748,6.07779789,-0.564885497,-1.06870234,-1.435114503,1368.866943,2264,1332.600708,78.36734772,765.625,2187.5,2.187734
349632.6159,504508.7188,-7.880311012,1.400359035,6.08737278,-0.458015263,-1.297709942,-1.206106901,1366.309448,2267,1329.670288,78.36734772,765.625,2195.3125,2.1979879
349632.6196,504516.5313,-7.858767033,1.409934163,6.082585335,-0.595419824,-1.083969474,-1.374045849,1366.309448,2267,1326.007324,78.36734772,765.625,2203.125,2.2017107
349632.6256,504524.3438,-7.84679842,1.42908442,6.082585335,-0.763358772,-0.946564913,-1.007633567,1368.866943,2264,1323.076904,78.36734772,765.625,2210.9375,2.2076475
349632.6355,504532.1563,-7.8683424,1.421903014,6.082585335,-0.824427485,-1.175572515,-1.221374035,1365.459106,2268,1319.41394,78.36734772,765.625,2218.75,2.2176136
349632.6358,504539.9688,-7.849192142,1.414721727,6.063435078,-0.763358772,-1.389312983,-1.206106901,1368.013428,2265,1318.681274,78.36734772,765.625,2226.5625,2.2178944
349632.6435,504547.7813,-7.798923016,1.41711545,6.058647633,-0.564885497,-1.160305381,-1.251908422,1368.013428,2265,1317.94873,78.36734772,765.625,2234.375,2.2255929
349632.6495,504555.5938,-7.794135094,1.433871984,6.082585335,-0.335877866,-1.541984677,-1.496183157,1365.459106,2268,1314.285767,78.36734772,765.625,2242.1875,2.231575
349632.6595,504563.4063,-7.779772758,1.419509292,6.051465988,-0.519083977,-1.358778596,-1.267175555,1370.577271,2262,1309.890137,78.36734772,765.625,2250,2.2416139
349632.6695,504571.2188,-7.830041885,1.414721727,6.082585335,-0.793893158,-1.175572515,-1.358778596,1366.309448,2267,1309.157471,78.36734772,765.625,2257.8125,2.2515542
349632.6775,504579.0313,-7.822860718,1.419509292,6.0658288,-0.793893158,-0.946564913,-1.51145041,1368.013428,2265,1309.157471,78.36734772,765.625,2265.625,2.2595445
349632.6855,504586.8438,-7.815679073,1.419509292,6.070616245,-0.748091578,-1.190839648,-1.02290082,1368.866943,2264,1309.157471,78.36734772,765.625,2273.4375,2.2675864
349632.6875,504594.6563,-7.803710461,1.414721727,6.053860188,-0.671755731,-0.97709924,-1.496183157,1365.459106,2268,1308.424927,78.36734772,765.625,2281.25,2.2696026
349632.6994,504602.4688,-7.87791729,1.412328005,6.080191612,-0.702290058,-1.06870234,-1.725190878,1370.577271,2262,1309.157471,78.36734772,765.625,2289.0625,2.2814551
349632.7124,504610.2813,-7.892280102,1.42908442,6.089766502,-0.763358772,-1.328244328,-1.541984677,1367.160889,2266,1309.890137,78.36734772,765.625,2296.875,2.2945104
349632.7128,504618.0938,-7.83482933,1.426690578,6.096948147,-0.870229006,-1.145038128,-1.343511462,1367.160889,2266,1309.890137,78.36734772,765.625,2304.6875,2.2949063
349632.7208,504625.9063,-7.774984837,1.412328005,6.096948147,-0.702290058,-0.793893158,-1.725190878,1369.721558,2263,1308.424927,78.36734772,765.625,2312.5,2.3028907
349632.7264,504633.7188,-7.808497906,1.41711545,6.106523037,-0.809160292,-0.641221344,-1.435114503,1365.459106,2268,1308.424927,78.36734772,765.625,2320.3125,2.308439
349632.7413,504641.5313,-7.767803669,1.419509292,6.082585335,-0.992366433,-0.519083977,-1.374045849,1369.721558,2263,1308.424927,78.36734772,765.625,2328.125,2.3234155
349632.7433,504649.3438,-7.818072796,1.424296856,6.084979057,-0.946564913,-0.183206111,-1.358778596,1367.160889,2266,1306.227051,78.36734772,765.625,2335.9375,2.3254128
349632.7543,504657.1563,-7.794135094,1.400359035,6.068222523,-1.11450386,-0.213740453,-1.312977076,1368.013428,2265,1302.564087,78.36734772,765.625,2343.75,2.3363619
349632.7663,504664.9688,-7.791741371,1.407540441,6.082585335,-0.809160292,-0.183206111,-0.97709924,1370.577271,2262,1299.633667,78.36734772,765.625,2351.5625,2.34833
349632.7702,504672.7813,-7.779772758,1.41711545,6.05625391,-0.916030526,-0.030534351,-1.46564889,1366.309448,2267,1301.098877,78.36734772,765.625,2359.375,2.3523269
349632.7812,504680.5938,-7.865948677,1.426690578,6.046678543,-0.687022924,-0.259541988,-1.51145041,1369.721558,2263,1298.168457,78.36734772,765.625,2367.1875,2.3632945
349632.7817,504688.4063,-7.87791729,1.42908442,6.070616245,-1.053435087,-0.137404576,-0.946564913,1369.721558,2263,1294.505493,78.36734772,765.625,2375,2.3637476
349632.7902,504696.2188,-7.84679842,1.407540441,6.053860188,-0.916030526,-0.53435117,-1.129770994,1367.160889,2266,1292.307739,78.36734772,765.625,2382.8125,2.3722581
349632.8021,504704.0313,-7.822860718,1.385996461,6.037103653,-0.839694679,-0.519083977,-1.328244328,1371.43396,2261,1293.772949,78.36734772,765.625,2390.625,2.3842257
349632.8081,504711.8438,-7.844404697,1.36205864,6.025134563,-0.656488538,-0.885496199,-1.343511462,1366.309448,2267,1291.575073,78.36734772,765.625,2398.4375,2.3902182
349632.8222,504719.6563,-7.928186893,1.39557147,6.051465988,-0.656488538,-0.656488538,-1.358778596,1369.721558,2263,1286.446899,78.36734772,765.625,2406.25,2.4042552
349632.828,504727.4688,-7.932974339,1.426690578,6.037103653,-0.427480906,-1.145038128,-1.480916023,1368.866943,2264,1283.516479,78.36734772,765.625,2414.0625,2.4101066
349632.8341,504735.2813,-7.863554955,1.402752876,6.0658288,-0.259541988,-1.328244328,-1.099236608,1367.160889,2266,1282.05127,78.36734772,765.625,2421.875,2.4161514
349632.846,504743.0938,-7.827648163,1.402752876,6.07779789,-0.412213743,-1.206106901,-1.526717544,1372.291748,2260,1280.58606,78.36734772,765.625,2429.6875,2.4280799
349632.8463,504750.9063,-7.839616776,1.385996461,6.061041355,-0.503816783,-1.206106901,-1.11450386,1367.160889,2266,1278.388306,78.36734772,765.625,2437.5,2.4283827
349632.8541,504758.7188,-7.820466995,1.400359035,6.039497375,-0.396946579,-1.618320584,-1.282442689,1369.721558,2263,1279.12085,78.36734772,765.625,2445.3125,2.4362105
349632.86,504766.5313,-7.853979588,1.412328005,6.070616245,-0.656488538,-1.832061052,-1.389312983,1371.43396,2261,1280.58606,78.36734772,765.625,2453.125,2.4420418
349632.8679,504774.3438,-7.842010975,1.426690578,6.061041355,-0.748091578,-1.694656491,-1.389312983,1366.309448,2267,1287.179443,78.36734772,765.625,2460.9375,2.4500083
349632.8819,504782.1563,-7.810891628,1.421903014,6.096948147,-1.236641169,-1.358778596,-1.007633567,1372.291748,2260,1298.901123,78.36734772,765.625,2468.75,2.4639734
349632.8839,504789.9688,-7.770197392,1.412328005,6.082585335,-1.099236608,-1.02290082,-1.190839648,1368.013428,2265,1313.553101,78.36734772,765.625,2476.5625,2.4659863
349632.8969,504797.7813,-7.786953926,1.424296856,6.104129314,-1.236641169,-0.732824445,-1.190839648,1369.721558,2263,1337.728882,78.36734772,765.625,2484.375,2.4789288
349632.8971,504805.5938,-7.839616776,1.431478143,6.070616245,-1.358778596,-1.06870234,-1.343511462,1372.291748,2260,1372.893799,78.36734772,765.625,2492.1875,2.4792146
349632.908,504813.4063,-7.899461269,1.41711545,6.094553947,-1.435114503,-0.885496199,-0.778625965,1367.160889,2266,1415.384644,78.36734772,765.625,2500,2.4900837
349632.9178,504821.2188,-7.885098934,1.414721727,6.075404167,-0.870229006,-0.839694679,-0.870229006,1371.43396,2261,1462.271118,78.36734772,765.625,2507.8125,2.4998754
349632.9181,504829.0313,-7.763016224,1.385996461,6.073009968,-0.717557251,-0.687022924,-0.946564913,1369.721558,2263,1512.087891,78.36734772,765.625,2515.625,2.5001632
349632.9318,504836.8438,-7.765409946,1.400359035,6.063435078,-0.320610672,-0.519083977,-1.145038128,1368.866943,2264,1564.102539,78.36734772,765.625,2523.4375,2.513829
349632.9368,504844.6563,-7.813285351,1.405146599,6.053860188,-0.274809152,-0.564885497,-1.419847369,1373.150635,2259,1619.780273,78.36734772,765.625,2531.25,2.5188686
349632.9477,504852.4688,-7.842010975,1.419509292,6.0658288,-0.290076345,-0.671755731,-1.083969474,1368.013428,2265,1675.457886,78.36734772,765.625,2539.0625,2.5298203
349632.9588,504860.2813,-7.849192142,1.443446994,6.080191612,-0.732824445,-0.671755731,-1.374045849,1372.291748,2260,1728.205078,78.36734772,765.625,2546.875,2.5408381
349632.9592,504868.0938,-7.827648163,1.426690578,6.049072266,-0.641221344,-0.48854962,-1.358778596,1370.577271,2262,1772.161133,78.36734772,765.625,2554.6875,2.5412491
349632.9688,504875.9063,-7.818072796,1.42908442,6.068222523,-0.778625965,-0.671755731,-1.496183157,1368.866943,2264,1809.523804,78.36734772,765.625,2562.5,2.5508891
349632.9747,504883.7188,-7.827648163,1.414721727,6.03470993,-0.671755731,-0.854961812,-1.251908422,1373.150635,2259,1837.362671,78.36734772,765.625,2570.3125,2.5567743
349632.9947,504891.5313,-7.837223053,1.405146599,6.032316208,-1.236641169,-1.02290082,-1.236641169,1368.866943,2264,1854.212402,78.36734772,765.625,2578.125,2.576729
349632.9949,504899.3438,-7.85637331,1.421903014,6.041891098,-0.763358772,-1.267175555,-1.51145041,1370.577271,2262,1859.340698,78.36734772,765.625,2585.9375,2.5770203
349633.0006,504907.1563,-7.899461269,1.409934163,6.049072266,-0.992366433,-1.404580116,-1.374045849,1372.291748,2260,1853.479858,78.36734772,765.625,2593.75,2.5826921
349633.0126,504914.9688,-7.882704735,1.402752876,6.0658288,-0.916030526,-1.679389358,-1.297709942,1368.866943,2264,1835.164795,78.36734772,765.625,2601.5625,2.5946688
349633.0146,504922.7813,-7.820466995,1.400359035,6.082585335,-0.839694679,-1.496183157,-1.206106901,1373.150635,2259,1808.058594,78.36734772,765.625,2609.375,2.5966947
349633.0306,504930.5938,-7.786953926,1.397965312,6.080191612,-0.564885497,-1.06870234,-1.526717544,1369.721558,2263,1774.359009,78.36734772,765.625,2617.1875,2.6126617
349633.0365,504938.4063,-7.784560204,1.436265707,6.08737278,-0.732824445,-0.854961812,-1.480916023,1370.577271,2262,1734.065918,78.36734772,765.625,2625,2.618573
349633.0455,504946.2188,-7.789347649,1.433871984,6.089766502,-0.961832047,-0.854961812,-1.221374035,1373.150635,2259,1683.516479,78.36734772,765.625,2632.8125,2.6275743
349633.0525,504954.0313,-7.827648163,1.431478143,6.099341869,-1.083969474,-1.251908422,-1.51145041,1368.866943,2264,1633.699585,78.36734772,765.625,2640.625,2.6345762
349633.053,504961.8438,-7.815679073,1.41711545,6.061041355,-1.02290082,-0.97709924,-1.328244328,1373.150635,2259,1587.545776,78.36734772,765.625,2648.4375,2.6350676
349633.0635,504969.6563,-7.82525444,1.393177748,6.061041355,-0.778625965,-0.702290058,-1.541984677,1370.577271,2262,1544.322388,78.36734772,765.625,2656.25,2.6455899
349633.0714,504977.4688,-7.815679073,1.39557147,6.05625391,-0.58015269,-0.427480906,-1.389312983,1370.577271,2262,1509.157471,78.36734772,765.625,2664.0625,2.6534582
349633.0784,504985.2813,-7.818072796,1.412328005,6.051465988,-0.473282456,-0.732824445,-1.51145041,1374.01062,2258,1479.12085,78.36734772,765.625,2671.875,2.6605206
349633.0924,504993.0938,-7.875523567,1.390783906,6.039497375,-0.702290058,-0.870229006,-1.572519064,1368.866943,2264,1454.212402,78.36734772,765.625,2679.6875,2.6744794
349633.0928,505000.9063,-7.916217804,1.383602619,6.015559673,-0.885496199,-1.145038128,-1.572519064,1373.150635,2259,1433.699585,78.36734772,765.625,2687.5,2.674878
349633.1055,505008.7188,-7.911430359,1.376421332,6.041891098,-0.564885497,-1.496183157,-1.312977076,1372.291748,2260,1413.186768,78.36734772,765.625,2695.3125,2.6875634
349633.1113,505016.5313,-7.861160755,1.397965312,6.044284821,-0.641221344,-1.526717544,-1.297709942,1370.577271,2262,1395.60437,78.36734772,765.625,2703.125,2.6934017
349633.1174,505024.3438,-7.83482933,1.381208897,6.061041355,-0.564885497,-1.603053451,-1.297709942,1374.01062,2258,1380.952393,78.36734772,765.625,2710.9375,2.6994416
349633.1263,505032.1563,-7.830041885,1.388390183,6.063435078,-0.595419824,-1.328244328,-1.190839648,1369.721558,2263,1368.498169,78.36734772,765.625,2718.75,2.7083831
349633.1323,505039.9688,-7.85637331,1.385996461,6.053860188,-0.564885497,-1.389312983,-0.854961812,1374.01062,2258,1357.509155,78.36734772,765.625,2726.5625,2.714337
349633.1482,505047.7813,-7.873129845,1.41711545,6.084979057,-0.503816783,-1.450381637,-0.97709924,1373.150635,2259,1349.450562,78.36734772,765.625,2734.375,2.7302965
349633.1487,505055.5938,-7.818072796,1.41711545,6.080191612,-0.839694679,-1.526717544,-1.160305381,1369.721558,2263,1344.322388,78.36734772,765.625,2742.1875,2.7307357
349633.1583,505063.4063,-7.791741371,1.426690578,6.070616245,-0.900763333,-1.328244328,-1.343511462,1374.871704,2257,1341.391968,78.36734772,765.625,2750,2.7403697
349633.1701,505071.2188,-7.772591114,1.43865943,6.092160225,-1.11450386,-1.02290082,-1.328244328,1369.721558,2263,1343.589722,78.36734772,765.625,2757.8125,2.7522257
349633.1705,505079.0313,-7.808497906,1.378815055,6.084979057,-0.900763333,-0.946564913,-1.496183157,1373.150635,2259,1348.717896,78.36734772,765.625,2765.625,2.7525802
349633.1861,505086.8438,-7.842010975,1.390783906,6.108916759,-0.610687017,-1.160305381,-1.46564889,1374.01062,2258,1358.241699,78.36734772,765.625,2773.4375,2.7681757
349633.1865,505094.6563,-7.873129845,1.397965312,6.099341869,-0.641221344,-0.702290058,-1.206106901,1369.721558,2263,1371.428589,78.36734772,765.625,2781.25,2.7685598
349633.2011,505102.4688,-7.844404697,1.419509292,6.061041355,-0.610687017,-0.748091578,-1.435114503,1374.01062,2258,1383.150146,78.36734772,765.625,2789.0625,2.7831791
349633.211,505110.2813,-7.820466995,1.390783906,6.07779789,-0.58015269,-1.312977076,-1.374045849,1371.43396,2261,1396.337036,78.36734772,765.625,2796.875,2.7930975
349633.2114,505118.0938,-7.832435608,1.397965312,6.05625391,-0.809160292,-1.02290082,-1.206106901,1372.291748,2260,1409.523804,78.36734772,765.625,2804.6875,2.7935157
349633.2213,505125.9063,-7.858767033,1.39557147,6.096948147,-0.870229006,-1.083969474,-1.129770994,1374.871704,2257,1422.710571,78.36734772,765.625,2812.5,2.8033999
349633.226,505133.7188,-7.849192142,1.39557147,6.094553947,-0.885496199,-1.297709942,-1.175572515,1370.577271,2262,1432.234375,78.36734772,765.625,2820.3125,2.808051
349633.236,505141.5313,-7.83482933,1.393177748,6.061041355,-0.717557251,-0.717557251,-1.328244328,1375.733765,2256,1440.293091,78.36734772,765.625,2828.125,2.8180664
349633.244,505149.3438,-7.815679073,1.390783906,6.061041355,-0.931297719,-0.610687017,-1.404580116,1372.291748,2260,1447.619019,78.36734772,765.625,2835.9375,2.8260445
349633.2569,505157.1563,-7.815679073,1.385996461,6.05625391,-0.824427485,-0.519083977,-1.435114503,1371.43396,2261,1452.014648,78.36734772,765.625,2843.75,2.8390216
349633.2649,505164.9688,-7.861160755,1.405146599,6.025134563,-0.732824445,-0.809160292,-1.648854971,1374.01062,2258,1454.945068,78.36734772,765.625,2851.5625,2.8470221
349633.2654,505172.7813,-7.863554955,1.412328005,6.039497375,-0.809160292,-1.099236608,-1.526717544,1369.721558,2263,1452.014648,78.36734772,765.625,2859.375,2.847447
349633.2749,505180.5938,-7.849192142,1.397965312,6.0658288,-0.793893158,-0.870229006,-1.358778596,1374.01062,2258,1448.351685,78.36734772,765.625,2867.1875,2.856956
349633.2828,505188.4063,-7.8683424,1.412328005,6.068222523,-0.824427485,-1.007633567,-1.664122105,1373.150635,2259,1443.223389,78.36734772,765.625,2875,2.8649218
349633.2888,505196.2188,-7.844404697,1.39557147,6.073009968,-0.916030526,-0.748091578,-1.175572515,1370.577271,2262,1432.967041,78.36734772,765.625,2882.8125,2.870908
349633.3068,505204.0313,-7.875523567,1.426690578,6.049072266,-0.839694679,-0.839694679,-1.358778596,1374.871704,2257,1421.245361,78.36734772,765.625,2890.625,2.8889007
349633.3108,505211.8438,-7.863554955,1.405146599,6.044284821,-1.282442689,-1.145038128,-1.46564889,1370.577271,2262,1407.32605,78.36734772,765.625,2898.4375,2.8928914
349633.3189,505219.6563,-7.880311012,1.371633768,6.061041355,-0.793893158,-1.145038128,-1.435114503,1374.01062,2258,1393.406616,78.36734772,765.625,2906.25,2.9009545
349633.3193,505227.4688,-7.861160755,1.400359035,6.068222523,-0.610687017,-1.267175555,-1.053435087,1374.01062,2258,1379.487183,78.36734772,765.625,2914.0625,2.9013876
349633.3277,505235.2813,-7.82525444,1.388390183,6.063435078,-0.839694679,-1.282442689,-1.175572515,1370.577271,2262,1367.032959,78.36734772,765.625,2921.875,2.9098066
349633.3417,505243.0938,-7.810891628,1.397965312,6.068222523,-0.641221344,-1.541984677,-1.46564889,1374.871704,2257,1356.043945,78.36734772,765.625,2929.6875,2.9238178
349633.3422,505250.9063,-7.801316738,1.405146599,6.061041355,-0.671755731,-1.160305381,-1.358778596,1371.43396,2261,1345.054932,78.36734772,765.625,2937.5,2.9242669
349633.3621,505258.7188,-7.796528816,1.414721727,6.075404167,-0.748091578,-1.312977076,-1.160305381,1374.01062,2258,1331.868164,78.36734772,765.625,2945.3125,2.944201
349633.3677,505266.5313,-7.822860718,1.424296856,6.05625391,-0.732824445,-1.358778596,-1.221374035,1374.871704,2257,1320.146484,78.36734772,765.625,2953.125,2.9498117
349633.3738,505274.3438,-7.832435608,1.419509292,6.068222523,-0.793893158,-1.633587837,-1.480916023,1370.577271,2262,1309.157471,78.36734772,765.625,2960.9375,2.9558376
349633.3817,505282.1563,-7.853979588,1.412328005,6.046678543,-0.58015269,-1.083969474,-1.51145041,1374.871704,2257,1299.633667,78.36734772,765.625,2968.75,2.9637763
349633.3822,505289.9688,-7.842010975,1.405146599,6.0658288,-0.625954211,-0.916030526,-1.389312983,1372.291748,2260,1287.912109,78.36734772,765.625,2976.5625,2.9642555
349633.3916,505297.7813,-7.822860718,1.41711545,6.096948147,-0.641221344,-1.099236608,-1.587786317,1373.150635,2259,1279.853516,78.36734772,765.625,2984.375,2.9736616
349633.4016,505305.5938,-7.849192142,1.421903014,6.096948147,-1.145038128,-1.053435087,-1.694656491,1374.871704,2257,1274.72522,78.36734772,765.625,2992.1875,2.9836689
349633.4077,505313.4063,-7.83482933,1.414721727,6.092160225,-1.145038128,-0.992366433,-1.328244328,1370.577271,2262,1271.062256,78.36734772,765.625,3000,2.989787
349633.4196,505321.2188,-7.842010975,1.405146599,6.073009968,-0.870229006,-1.007633567,-1.282442689,1374.871704,2257,1268.131836,78.36734772,765.625,3007.8125,3.0016332
349633.4255,505329.0313,-7.82525444,1.393177748,6.084979057,-0.778625965,-1.267175555,-1.236641169,1373.150635,2259,1268.131836,78.36734772,765.625,3015.625,3.0075926
349633.4615,505336.8438,-7.810891628,1.397965312,6.080191612,-0.625954211,-0.946564913,-1.145038128,1371.43396,2261,1268.131836,78.36734772,765.625,3023.4375,3.043557
349633.4619,505344.6563,-7.830041885,1.409934163,6.0658288,-0.854961812,-0.778625965,-1.221374035,1375.733765,2256,1270.329712,78.36734772,765.625,3031.25,3.043989
349633.4623,505352.4688,-7.794135094,1.393177748,6.05625391,-0.687022924,-0.656488538,-1.145038128,1371.43396,2261,1271.794922,78.36734772,765.625,3039.0625,3.0444007
349633.4627,505360.2813,-7.779772758,1.385996461,6.089766502,-0.564885497,-0.564885497,-1.083969474,1374.871704,2257,1274.72522,78.36734772,765.625,3046.875,3.0448115
349633.4632,505368.0938,-7.808497906,1.409934163,6.07779789,-0.610687017,-0.687022924,-0.97709924,1373.150635,2259,1278.388306,78.36734772,765.625,3054.6875,3.0452438
349633.4794,505375.9063,-7.844404697,1.393177748,6.063435078,-0.687022924,-0.335877866,-1.450381637,1370.577271,2262,1284.249023,78.36734772,765.625,3062.5,3.0614579
349633.4798,505383.7188,-7.892280102,1.400359035,6.070616245,-0.473282456,-0.839694679,-1.236641169,1376.597046,2255,1289.377319,78.36734772,765.625,3070.3125,3.0619209
349633.4874,505391.5313,-7.849192142,1.424296856,6.068222523,-0.564885497,-0.824427485,-1.282442689,1371.43396,2261,1295.970703,78.36734772,765.625,3078.125,3.0694354
349633.4933,505399.3438,-7.844404697,1.41711545,6.068222523,-0.58015269,-0.717557251,-1.496183157,1373.150635,2259,1301.831543,78.36734772,765.625,3085.9375,3.0754272
349633.5013,505407.1563,-7.839616776,1.409934163,6.063435078,-0.793893158,-0.381679386,-1.251908422,1374.01062,2258,1307.692261,78.36734772,765.625,3093.75,3.083426
349633.5153,505414.9688,-7.806104183,1.400359035,6.041891098,-0.793893158,-0.473282456,-1.435114503,1370.577271,2262,1312.820557,78.36734772,765.625,3101.5625,3.097365
349633.5213,505422.7813,-7.84679842,1.400359035,6.058647633,-0.748091578,-0.687022924,-1.46564889,1375.733765,2256,1320.87915,78.36734772,765.625,3109.375,3.1033512
349633.5312,505430.5938,-7.901854992,1.39557147,6.039497375,-1.099236608,-0.854961812,-1.251908422,1371.43396,2261,1328.205078,78.36734772,765.625,3117.1875,3.1133242
349633.5315,505438.4063,-7.894673824,1.412328005,6.058647633,-0.931297719,-0.961832047,-0.931297719,1374.01062,2258,1331.868164,78.36734772,765.625,3125,3.1136084
349633.5393,505446.2188,-7.822860718,1.381208897,6.080191612,-1.06870234,-1.038167953,-1.312977076,1375.733765,2256,1328.937744,78.36734772,765.625,3132.8125,3.1213608
349633.5572,505454.0313,-7.806104183,1.39557147,6.053860188,-0.839694679,-1.038167953,-1.374045849,1371.43396,2261,1328.937744,78.36734772,765.625,3140.625,3.1392419
349633.5575,505461.8438,-7.779772758,1.397965312,6.027528286,-0.793893158,-1.083969474,-1.282442689,1375.733765,2256,1326.739868,78.36734772,765.625,3148.4375,3.139616
349633.5693,505469.6563,-7.815679073,1.383602619,6.053860188,-0.992366433,-1.160305381,-1.282442689,1372.291748,2260,1326.739868,78.36734772,765.625,3156.25,3.151335
349633.5697,505477.4688,-7.861160755,1.421903014,6.061041355,-0.931297719,-1.251908422,-1.175572515,1373.150635,2259,1323.076904,78.36734772,1000,3164.0625,3.151771
349633.5821,505485.2813,-7.853979588,1.405146599,6.05625391,-0.946564913,-0.992366433,-1.480916023,1374.871704,2257,1318.681274,78.36734772,1000,3171.875,3.1641804
349633.5901,505493.0938,-7.842010975,1.405146599,6.053860188,-0.961832047,-1.480916023,-1.450381637,1371.43396,2261,1313.553101,78.36734772,1000,3179.6875,3.1721955
349633.5991,505500.9063,-7.830041885,1.390783906,6.063435078,-0.58015269,-1.587786317,-1.51145041,1375.733765,2256,1308.424927,78.36734772,1000,3187.5,3.1811413
349633.6082,505508.7188,-7.83482933,1.402752876,6.0658288,-0.381679386,-1.618320584,-1.694656491,1373.150635,2259,1305.494507,78.36734772,1000,3195.3125,3.1902832
349633.6086,505516.5313,-7.844404697,1.421903014,6.075404167,-0.687022924,-1.572519064,-1.358778596,1371.43396,2261,1304.029297,78.36734772,1000,3203.125,3.1906723
349633.6171,505524.3438,-7.815679073,1.405146599,6.096948147,-0.58015269,-0.946564913,-1.648854971,1374.871704,2257,1305.494507,78.36734772,1000,3210.9375,3.1991442
349633.637,505532.1563,-7.822860718,1.383602619,6.080191612,-0.427480906,-0.778625965,-1.679389358,1371.43396,2261,1309.890137,78.36734772,1000,3218.75,3.2190703
349633.6373,505539.9688,-7.791741371,1.381208897,6.037103653,-0.656488538,-0.97709924,-1.51145041,1374.01062,2258,1308.424927,78.36734772,1000,3226.5625,3.2193654
349633.647,505547.7813,-7.842010975,1.402752876,6.058647633,-0.702290058,-1.358778596,-1.190839648,1374.871704,2257,1306.227051,78.36734772,1000,3234.375,3.2290409
349633.6474,505555.5938,-7.851585865,1.412328005,6.049072266,-0.595419824,-1.02290082,-1.328244328,1371.43396,2261,1304.029297,78.36734772,1000,3242.1875,3.2294506
349633.659,505563.4063,-7.863554955,1.421903014,6.049072266,-0.870229006,-1.06870234,-1.175572515,1376.597046,2255,1300.366333,78.36734772,1000,3250,3.2410409
349633.6729,505571.2188,-7.839616776,1.39557147,6.063435078,-1.099236608,-1.145038128,-1.251908422,1371.43396,2261,1297.435913,78.36734772,1000,3257.8125,3.2549874
349633.6732,505579.0313,-7.839616776,1.414721727,6.063435078,-1.145038128,-0.97709924,-1.374045849,1374.01062,2258,1295.238037,78.36734772,1000,3265.625,3.2552586
349633.68,505586.8438,-7.810891628,1.402752876,6.073009968,-0.992366433,-1.145038128,-1.343511462,1374.01062,2258,1294.505493,78.36734772,1000,3273.4375,3.2620931
349633.6918,505594.6563,-7.815679073,1.41711545,6.080191612,-0.931297719,-0.763358772,-1.282442689,1371.43396,2261,1294.505493,78.36734772,1000,3281.25,3.2738764
349633.698,505602.4688,-7.844404697,1.421903014,6.084979057,-1.267175555,-1.038167953,-1.251908422,1375.733765,2256,1294.505493,78.36734772,1000,3289.0625,3.280029
349633.7107,505610.2813,-7.844404697,1.402752876,6.070616245,-0.824427485,-0.793893158,-1.053435087,1372.291748,2260,1297.435913,78.36734772,1000,3296.875,3.2928139
349633.711,505618.0938,-7.844404697,1.419509292,6.075404167,-0.961832047,-0.809160292,-1.053435087,1373.150635,2259,1298.901123,78.36734772,1000,3304.6875,3.2930961
349633.7189,505625.9063,-7.822860718,1.383602619,6.058647633,-0.900763333,-0.793893158,-1.297709942,1374.871704,2257,1300.366333,78.36734772,1000,3312.5,3.3009758
349633.7257,505633.7188,-7.853979588,1.385996461,6.0658288,-0.564885497,-0.656488538,-1.618320584,1371.43396,2261,1299.633667,78.36734772,1000,3320.3125,3.3078219
349633.7397,505641.5313,-7.8683424,1.381208897,6.058647633,-0.549618304,-0.870229006,-1.435114503,1375.733765,2256,1293.772949,78.36734772,1000,3328.125,3.3217909
349633.7478,505649.3438,-7.844404697,1.388390183,6.075404167,-0.24427481,-0.656488538,-1.06870234,1373.150635,2259,1287.179443,78.36734772,1000,3335.9375,3.3298445
349633.7557,505657.1563,-7.798923016,1.390783906,6.063435078,-0.427480906,-0.549618304,-1.404580116,1373.150635,2259,1281.318726,78.36734772,1000,3343.75,3.3377671
349633.7636,505664.9688,-7.818072796,1.371633768,6.039497375,-0.19847329,-0.916030526,-1.419847369,1376.597046,2255,1277.65564,78.36734772,1000,3351.5625,3.3456735
349633.7639,505672.7813,-7.885098934,1.388390183,6.073009968,-0.305343509,-1.328244328,-1.404580116,1371.43396,2261,1278.388306,78.36734772,1000,3359.375,3.3459517
349633.7737,505680.5938,-7.901854992,1.388390183,6.068222523,-0.412213743,-1.11450386,-1.129770994,1375.733765,2256,1277.65564,78.36734772,1000,3367.1875,3.3557722
349633.7806,505688.4063,-7.844404697,1.409934163,6.08737278,-0.167938933,-0.931297719,-0.793893158,1374.01062,2258,1276.19043,78.36734772,1000,3375,3.362689
349633.7945,505696.2188,-7.820466995,1.407540441,6.073009968,-0.213740453,-0.717557251,-1.236641169,1372.291748,2260,1276.19043,78.36734772,1000,3382.8125,3.3765989
349633.8026,505704.0313,-7.774984837,1.421903014,6.08737278,-0.656488538,-0.97709924,-1.312977076,1376.597046,2255,1278.388306,78.36734772,1000,3390.625,3.3846385
349633.8029,505711.8438,-7.806104183,1.424296856,6.070616245,-0.687022924,-0.900763333,-1.221374035,1370.577271,2262,1284.249023,78.36734772,1000,3398.4375,3.3849405
349633.8116,505719.6563,-7.844404697,1.443446994,6.063435078,-0.595419824,-0.854961812,-1.358778596,1374.871704,2257,1297.435913,78.36734772,1000,3406.25,3.3936542
349633.8204,505727.4688,-7.815679073,1.412328005,6.058647633,-0.748091578,-0.748091578,-1.190839648,1374.871704,2257,1314.285767,78.36734772,1000,3414.0625,3.4025187
349633.8305,505735.2813,-7.798923016,1.414721727,6.070616245,-0.916030526,-0.641221344,-1.267175555,1372.291748,2260,1332.600708,78.36734772,1000,3421.875,3.4125357
349633.8445,505743.0938,-7.820466995,1.405146599,6.068222523,-1.038167953,-0.473282456,-1.603053451,1375.733765,2256,1358.974365,78.36734772,1000,3429.6875,3.4265869
349633.8449,505750.9063,-7.85637331,1.407540441,6.070616245,-0.717557251,-0.625954211,-1.312977076,1372.291748,2260,1393.406616,78.36734772,1000,3437.5,3.4269953
349633.8515,505758.7188,-7.885098934,1.39557147,6.082585335,-0.717557251,-0.748091578,-1.55725193,1374.01062,2258,1435.897461,78.36734772,1000,3445.3125,3.433587
349633.8614,505766.5313,-7.861160755,1.383602619,6.053860188,-0.610687017,-0.610687017,-1.496183157,1374.871704,2257,1484.249023,78.36734772,1000,3453.125,3.4434291
349633.8703,505774.3438,-7.818072796,1.371633768,6.061041355,-0.763358772,-0.961832047,-1.251908422,1370.577271,2262,1536.263794,78.36734772,1000,3460.9375,3.4524156
349633.8803,505782.1563,-7.801316738,1.381208897,6.037103653,-0.732824445,-0.717557251,-0.992366433,1375.733765,2256,1589.74353,78.36734772,1000,3468.75,3.4623867
349633.8807,505789.9688,-7.832435608,1.383602619,6.03470993,-0.641221344,-0.961832047,-1.297709942,1372.291748,2260,1643.956055,78.36734772,1000,3476.5625,3.4627774
349633.8943,505797.7813,-7.839616776,1.412328005,6.051465988,-0.732824445,-0.931297719,-1.297709942,1372.291748,2260,1695.970703,78.36734772,1000,3484.375,3.4763671
349633.9073,505805.5938,-7.84679842,1.407540441,6.061041355,-0.900763333,-0.946564913,-1.083969474,1375.733765,2256,1737.728882,78.36734772,1000,3492.1875,3.4893482
349633.9077,505813.4063,-7.818072796,1.407540441,6.070616245,-1.11450386,-0.839694679,-1.236641169,1370.577271,2262,1773.626343,78.36734772,1000,3500,3.4897647
349633.9192,505821.2188,-7.83482933,1.388390183,6.068222523,-0.687022924,-0.503816783,-1.236641169,1374.871704,2257,1798.53479,78.36734772,1000,3507.8125,3.5013212
349633.9196,505829.0313,-7.839616776,1.400359035,6.058647633,-0.519083977,-0.870229006,-1.206106901,1374.01062,2258,1815.384644,78.36734772,1000,3515.625,3.5017251
349633.9332,505836.8438,-7.849192142,1.383602619,6.084979057,-0.687022924,-0.656488538,-1.099236608,1372.291748,2260,1822.710571,78.36734772,1000,3523.4375,3.5152773
349633.9431,505844.6563,-7.863554955,1.400359035,6.099341869,-0.412213743,-0.870229006,-1.145038128,1375.733765,2256,1819.047607,78.36734772,1000,3531.25,3.5251874
349633.9551,505852.4688,-7.813285351,1.431478143,6.0658288,-0.259541988,-0.274809152,-1.328244328,1371.43396,2261,1803.662964,78.36734772,1000,3539.0625,3.5371952
349633.9671,505868.0938,-7.786953926,1.414721727,6.070616245,-0.4427481,-0.320610672,-1.267175555,1374.01062,2258,1747.985352,78.36734772,1000,3554.6875,3.5491634
349633.9675,505875.9063,-7.83482933,1.39557147,6.05625391,-0.748091578,-0.091603056,-1.496183157,1372.291748,2260,1714.285767,78.36734772,1000,3562.5,3.5495551
349633.9793,505883.7188,-7.844404697,1.39557147,6.049072266,-0.732824445,-0.519083977,-1.374045849,1375.733765,2256,1673.260132,78.36734772,1000,3570.3125,3.5614046
349633.987,505891.5313,-7.875523567,1.397965312,6.022740841,-0.610687017,-0.259541988,-1.312977076,1371.43396,2261,1629.304077,78.36734772,1000,3578.125,3.569125
349633.9931,505899.3438,-7.892280102,1.412328005,6.037103653,-0.824427485,-0.702290058,-1.328244328,1374.871704,2257,1586.813232,78.36734772,1000,3585.9375,3.5751277
349634.001,505907.1563,-7.885098934,1.383602619,6.05625391,-0.854961812,-0.931297719,-1.236641169,1374.871704,2257,1542.857178,78.36734772,1000,3593.75,3.5830937
349634.0129,505914.9688,-7.870736122,1.378815055,6.039497375,-0.916030526,-0.97709924,-1.633587837,1372.291748,2260,1499.633667,78.36734772,1000,3601.5625,3.5950172
349634.0218,505922.7813,-7.87791729,1.357271075,6.041891098,-0.519083977,-0.992366433,-1.282442689,1376.597046,2255,1460.805908,78.36734772,1000,3609.375,3.6038864
349634.0222,505930.5938,-7.873129845,1.366846204,6.041891098,-0.564885497,-1.145038128,-1.038167953,1372.291748,2260,1426.373657,78.36734772,1000,3617.1875,3.6042934
349634.0317,505938.4063,-7.849192142,1.39557147,6.029922009,-0.259541988,-1.755725145,-1.06870234,1374.01062,2258,1394.871826,78.36734772,1000,3625,3.6138259
349634.0377,505946.2188,-7.82525444,1.424296856,6.041891098,-0.503816783,-1.160305381,-1.358778596,1375.733765,2256,1364.102539,78.36734772,1000,3632.8125,3.6198024
349634.0497,505954.0313,-7.832435608,1.409934163,6.029922009,-0.839694679,-1.236641169,-1.282442689,1371.43396,2261,1339.926758,78.36734772,1000,3640.625,3.6317385
349634.0657,505961.8438,-7.832435608,1.405146599,6.029922009,-0.610687017,-1.358778596,-1.358778596,1376.597046,2255,1324.542114,78.36734772,1000,3648.4375,3.6477727
349634.0662,505969.6563,-7.803710461,1.402752876,6.044284821,-0.656488538,-1.160305381,-1.435114503,1373.150635,2259,1315.750977,78.36734772,1000,3656.25,3.6482356
349634.0718,505977.4688,-7.83482933,1.385996461,6.041891098,-0.458015263,-1.343511462,-1.282442689,1374.01062,2258,1311.355347,78.36734772,1000,3664.0625,3.6539243
349634.0776,505985.2813,-7.853979588,1.376421332,6.07779789,-0.351145029,-1.541984677,-1.160305381,1376.597046,2255,1309.890137,78.36734772,1000,3671.875,3.6597136
349634.0876,505993.0938,-7.84679842,1.388390183,6.084979057,-0.259541988,-1.267175555,-1.099236608,1371.43396,2261,1312.087891,78.36734772,1000,3679.6875,3.6697261
349634.0996,506000.9063,-7.84679842,1.409934163,6.05625391,-0.458015263,-1.770992398,-1.374045849,1375.733765,2256,1317.216064,78.36734772,1000,3687.5,3.681662
349634.0999,506008.7188,-7.875523567,1.405146599,6.089766502,-0.671755731,-1.480916023,-1.419847369,1374.01062,2258,1322.34436,78.36734772,1000,3695.3125,3.6819837
349634.1155,506016.5313,-7.880311012,1.405146599,6.106523037,-0.97709924,-1.282442689,-1.099236608,1373.150635,2259,1327.472534,78.36734772,1000,3703.125,3.6975707
349634.1215,506024.3438,-7.832435608,1.390783906,6.084979057,-0.748091578,-0.916030526,-0.870229006,1376.597046,2255,1331.868164,78.36734772,1000,3710.9375,3.7035562
349634.1316,506032.1563,-7.791741371,1.397965312,6.070616245,-0.610687017,-0.671755731,-0.839694679,1372.291748,2260,1339.926758,78.36734772,1000,3718.75,3.7136854
349634.1394,506039.9688,-7.758228779,1.388390183,6.05625391,-0.625954211,-0.656488538,-1.221374035,1375.733765,2256,1350.915771,78.36734772,1000,3726.5625,3.7215057
349634.1397,506047.7813,-7.758228779,1.402752876,6.049072266,-0.519083977,0,-1.267175555,1374.01062,2258,1367.032959,78.36734772,1000,3734.375,3.7217784
349634.1477,506055.5938,-7.82525444,1.390783906,6.037103653,-0.366412222,-0.351145029,-1.450381637,1372.291748,2260,1380.952393,78.36734772,1000,3742.1875,3.7297289
349634.1555,506063.4063,-7.84679842,1.431478143,6.063435078,-0.183206111,-0.183206111,-1.358778596,1376.597046,2255,1394.871826,78.36734772,1000,3750,3.7375282
349634.1714,506071.2188,-7.839616776,1.409934163,6.037103653,-0.427480906,0.137404576,-0.992366433,1373.150635,2259,1408.058594,78.36734772,1000,3757.8125,3.7534984
349634.1814,506079.0313,-7.844404697,1.397965312,6.049072266,-0.503816783,-0.015267176,-1.358778596,1375.733765,2256,1419.780273,78.36734772,1000,3765.625,3.763484
349634.1818,506086.8438,-7.875523567,1.400359035,6.046678543,-0.366412222,-0.412213743,-1.496183157,1375.733765,2256,1432.234375,78.36734772,1000,3773.4375,3.7638755
349634.1875,506094.6563,-7.947337151,1.397965312,6.046678543,-0.396946579,-0.549618304,-1.145038128,1372.291748,2260,1442.490845,78.36734772,1000,3781.25,3.7696164
349634.1943,506102.4688,-7.899461269,1.409934163,6.03470993,-0.213740453,-1.206106901,-1.099236608,1377.461304,2254,1446.153809,78.36734772,1000,3789.0625,3.776406
349634.2043,506110.2813,-7.904248714,1.414721727,6.041891098,-0.473282456,-1.145038128,-1.633587837,1373.150635,2259,1448.351685,78.36734772,1000,3796.875,3.7863724
349634.2143,506118.0938,-7.806104183,1.421903014,6.039497375,-0.595419824,-1.297709942,-1.328244328,1374.01062,2258,1446.886475,78.36734772,1000,3804.6875,3.7963577
349634.2147,506125.9063,-7.822860718,1.41711545,6.03470993,-1.11450386,-1.267175555,-1.419847369,1376.597046,2255,1442.490845,78.36734772,1000,3812.5,3.7967699
349634.2276,506133.7188,-7.830041885,1.409934163,6.046678543,-1.175572515,-1.435114503,-1.129770994,1372.291748,2260,1431.501831,78.36734772,1000,3820.3125,3.8097174
349634.2332,506141.5313,-7.815679073,1.385996461,6.022740841,-0.839694679,-1.02290082,-1.435114503,1376.597046,2255,1416.849854,78.36734772,1000,3828.125,3.8152985
349634.2442,506149.3438,-7.818072796,1.393177748,6.041891098,-0.763358772,-0.946564913,-1.389312983,1374.01062,2258,1399.267456,78.36734772,1000,3835.9375,3.8262804
349634.2492,506157.1563,-7.830041885,1.388390183,6.068222523,-0.427480906,-1.038167953,-1.46564889,1374.01062,2258,1382.417603,78.36734772,1000,3843.75,3.831277
349634.2602,506164.9688,-7.853979588,1.371633768,6.082585335,-0.687022924,-0.732824445,-1.129770994,1377.461304,2254,1364.835205,78.36734772,1000,3851.5625,3.8422488
349634.2852,506172.7813,-7.858767033,1.397965312,6.068222523,-0.458015263,-1.297709942,-1.145038128,1373.150635,2259,1350.183105,78.36734772,1000,3859.375,3.8673127
349634.2855,506180.5938,-7.873129845,1.376421332,6.063435078,-0.717557251,-0.854961812,-1.099236608,1376.597046,2255,1339.194092,78.36734772,1000,3867.1875,3.8676026
349634.2858,506188.4063,-7.887492657,1.402752876,6.0658288,-0.473282456,-0.366412222,-1.358778596,1374.871704,2257,1324.542114,78.36734772,1000,3875,3.8679067
349634.2881,506196.2188,-7.865948677,1.414721727,6.037103653,-0.519083977,-0.793893158,-1.221374035,1373.150635,2259,1309.890137,78.36734772,1000,3882.8125,3.8701814
349634.298,506204.0313,-7.863554955,1.397965312,6.044284821,-0.48854962,-1.129770994,-1.358778596,1377.461304,2254,1295.970703,78.36734772,1000,3890.625,3.8800922
349634.3111,506211.8438,-7.818072796,1.424296856,6.032316208,-0.625954211,-0.748091578,-1.55725193,1372.291748,2260,1288.644653,78.36734772,1000,3898.4375,3.8931326
349634.3115,506219.6563,-7.842010975,1.42908442,6.058647633,-0.931297719,-0.809160292,-1.709923625,1376.597046,2255,1282.783936,78.36734772,1000,3906.25,3.893536
349634.3211,506227.4688,-7.870736122,1.388390183,6.05625391,-1.099236608,-0.900763333,-1.51145041,1376.597046,2255,1279.853516,78.36734772,1000,3914.0625,3.9032015
349634.3329,506235.2813,-7.853979588,1.381208897,6.039497375,-0.946564913,-0.656488538,-1.221374035,1373.150635,2259,1281.318726,78.36734772,1000,3921.875,3.915026
349634.34,506243.0938,-7.837223053,1.385996461,6.049072266,-1.099236608,-0.824427485,-1.312977076,1377.461304,2254,1282.783936,78.36734772,1000,3929.6875,3.9220343
349634.3469,506250.9063,-7.865948677,1.381208897,6.094553947,-1.129770994,-0.854961812,-1.175572515,1374.01062,2258,1285.714233,78.36734772,1000,3937.5,3.9290176
349634.3519,506258.7188,-7.870736122,1.39557147,6.075404167,-0.885496199,-0.900763333,-0.916030526,1376.597046,2255,1290.842529,78.36734772,1000,3945.3125,3.9339961
349634.3659,506266.5313,-7.844404697,1.397965312,6.061041355,-0.564885497,-0.793893158,-0.793893158,1375.733765,2256,1295.970703,78.36734772,1000,3953.125,3.9479688
349634.3663,506274.3438,-7.837223053,1.381208897,6.03470993,-0.717557251,-0.854961812,-1.480916023,1372.291748,2260,1300.366333,78.36734772,1000,3960.9375,3.9483347
349634.3769,506282.1563,-7.827648163,1.381208897,6.051465988,-0.427480906,-1.160305381,-0.946564913,1377.461304,2254,1306.227051,78.36734772,1000,3968.75,3.9590238
349634.3909,506289.9688,-7.861160755,1.407540441,6.063435078,0.015267176,-0.809160292,-0.824427485,1374.871704,2257,1309.157471,78.36734772,1000,3976.5625,3.9729344
349634.3913,506297.7813,-7.794135094,1.409934163,6.063435078,-0.427480906,-0.427480906,-1.190839648,1375.733765,2256,1312.820557,78.36734772,1000,3984.375,3.9733516
349634.3989,506305.5938,-7.801316738,1.39557147,6.039497375,-0.458015263,-0.213740453,-1.526717544,1377.461304,2254,1317.216064,78.36734772,1000,3992.1875,3.9809493
349634.4068,506313.4063,-7.822860718,1.407540441,6.027528286,-0.503816783,-0.53435117,-1.297709942,1372.291748,2260,1319.41394,78.36734772,1000,4000,3.9888927
349634.4168,506321.2188,-7.885098934,1.42908442,6.032316208,-0.625954211,-0.48854962,-1.282442689,1377.461304,2254,1321.611694,78.36734772,1000,4007.8125,3.9988367
349634.4317,506329.0313,-7.875523567,1.400359035,6.070616245,-0.473282456,-0.335877866,-1.190839648,1376.597046,2255,1321.611694,78.36734772,1000,4015.625,4.0137808
349634.4388,506336.8438,-7.832435608,1.397965312,6.010772228,-0.732824445,-0.549618304,-1.664122105,1374.871704,2257,1320.146484,78.36734772,1000,4023.4375,4.0208675
349634.4457,506344.6563,-7.875523567,1.402752876,6.017953396,-0.809160292,-0.839694679,-1.297709942,1378.32666,2253,1317.94873,78.36734772,1000,4031.25,4.0277453
349634.4461,506352.4688,-7.892280102,1.414721727,6.020347118,-0.946564913,-1.419847369,-1.46564889,1374.01062,2258,1315.018311,78.36734772,1000,4039.0625,4.0281623
349634.4536,506360.2813,-7.909036636,1.426690578,6.05625391,-0.885496199,-1.587786317,-1.312977076,1378.32666,2253,1312.820557,78.36734772,1000,4046.875,4.0356978
349634.4696,506368.0938,-7.875523567,1.41711545,6.046678543,-0.839694679,-1.526717544,-1.297709942,1376.597046,2255,1314.285767,78.36734772,1000,4054.6875,4.0517219
349634.4701,506375.9063,-7.832435608,1.402752876,6.051465988,-0.732824445,-1.541984677,-1.419847369,1374.871704,2257,1315.018311,78.36734772,1000,4062.5,4.0521904
349634.4808,506383.7188,-7.827648163,1.388390183,6.068222523,-0.854961812,-1.099236608,-1.11450386,1380.060669,2251,1317.216064,78.36734772,1000,4070.3125,4.0628799
349634.4811,506391.5313,-7.844404697,1.388390183,6.049072266,-0.641221344,-1.297709942,-1.480916023,1374.871704,2257,1318.681274,78.36734772,1000,4078.125,4.0631788
349634.4945,506399.3438,-7.837223053,1.409934163,6.063435078,-0.366412222,-1.374045849,-1.236641169,1377.461304,2254,1320.146484,78.36734772,1000,4085.9375,4.0766166
349634.5005,506407.1563,-7.827648163,1.409934163,6.053860188,-0.641221344,-1.51145041,-1.389312983,1377.461304,2254,1320.87915,78.36734772,1000,4093.75,4.0825858
349634.5105,506414.9688,-7.815679073,1.424296856,6.051465988,-0.717557251,-1.099236608,-1.374045849,1374.871704,2257,1319.41394,78.36734772,1000,4101.5625,4.0926053
349634.5204,506422.7813,-7.782166481,1.433871984,6.041891098,-0.824427485,-0.396946579,-1.404580116,1380.060669,2251,1317.94873,78.36734772,1000,4109.375,4.1025239
349634.5304,506430.5938,-7.803710461,1.397965312,6.07779789,-0.97709924,-0.778625965,-1.633587837,1375.733765,2256,1317.94873,78.36734772,1000,4117.1875,4.1124951
349634.5374,506438.4063,-7.85637331,1.393177748,6.044284821,-0.778625965,-0.503816783,-1.786259532,1377.461304,2254,1317.94873,78.36734772,1000,4125,4.1195268
349634.5377,506446.2188,-7.865948677,1.381208897,6.068222523,-0.961832047,-0.641221344,-1.541984677,1379.193115,2252,1317.216064,78.36734772,1000,4132.8125,4.1198079
349634.5492,506454.0313,-7.892280102,1.366846204,6.005984306,-0.213740453,-0.671755731,-1.297709942,1374.871704,2257,1317.216064,78.36734772,1000,4140.625,4.1312371
349634.5594,506461.8438,-7.885098934,1.366846204,6.008378029,-0.564885497,-1.267175555,-1.435114503,1380.060669,2251,1318.681274,78.36734772,1000,4148.4375,4.1414848
349634.5654,506469.6563,-7.889886379,1.378815055,6.037103653,-0.366412222,-1.358778596,-1.541984677,1376.597046,2255,1321.611694,78.36734772,1000,4156.25,4.1474293
349634.5755,506477.4688,-7.918611526,1.376421332,6.046678543,-0.137404576,-1.435114503,-1.190839648,1377.461304,2254,1324.542114,78.36734772,1000,4164.0625,4.157603
349634.5814,506485.2813,-7.894673824,1.36205864,6.05625391,-0.229007632,-1.770992398,-0.946564913,1380.929321,2250,1326.739868,78.36734772,1000,4171.875,4.1634811
349634.5863,506493.0938,-7.85637331,1.383602619,6.041891098,-0.061068702,-1.709923625,-1.06870234,1374.871704,2257,1328.937744,78.36734772,1000,4179.6875,4.1683812
349634.6013,506500.9063,-7.808497906,1.400359035,6.039497375,-0.473282456,-1.633587837,-1.312977076,1380.060669,2251,1328.205078,78.36734772,1000,4187.5,4.1833529
349634.6016,506508.7188,-7.827648163,1.42908442,6.039497375,-0.717557251,-1.587786317,-1.160305381,1377.461304,2254,1326.007324,78.36734772,1000,4195.3125,4.1836777
349634.6152,506516.5313,-7.82525444,1.409934163,6.037103653,-0.900763333,-1.145038128,-1.099236608,1377.461304,2254,1325.27478,78.36734772,1000,4203.125,4.1972571
349634.6172,506524.3438,-7.794135094,1.407540441,6.063435078,-1.038167953,-0.824427485,-1.11450386,1380.929321,2250,1321.611694,78.36734772,1000,4210.9375,4.1992821
349634.6282,506532.1563,-7.803710461,1.431478143,6.049072266,-0.656488538,-0.503816783,-1.450381637,1375.733765,2256,1326.007324,78.36734772,1000,4218.75,4.2103098
349634.6382,506539.9688,-7.803710461,1.433871984,6.08737278,-0.916030526,-0.106870227,-1.419847369,1379.193115,2252,1334.798584,78.36734772,1000,4226.5625,4.2202686
349634.6385,506547.7813,-7.84679842,1.41711545,6.073009968,-0.961832047,-0.076335877,-1.374045849,1379.193115,2252,1354.578735,78.36734772,1000,4234.375,4.2205521
349634.6563,506555.5938,-7.849192142,1.426690578,6.0658288,-1.053435087,-0.122137405,-1.51145041,1375.733765,2256,1384.615356,78.36734772,1000,4242.1875,4.2383329
349634.6567,506563.4063,-7.851585865,1.390783906,6.027528286,-0.656488538,-0.183206111,-1.526717544,1380.060669,2251,1424.908447,78.36734772,1000,4250,4.2387679
349634.6651,506571.2188,-7.875523567,1.383602619,6.015559673,-0.458015263,-0.396946579,-1.877862573,1376.597046,2255,1470.329712,78.36734772,1000,4257.8125,4.2471782
349634.6751,506579.0313,-7.906642914,1.39557147,6.051465988,-0.854961812,-0.549618304,-1.297709942,1379.193115,2252,1520.87915,78.36734772,1000,4265.625,4.2571776
349634.6754,506586.8438,-7.892280102,1.388390183,6.029922009,-0.58015269,-0.290076345,-1.175572515,1379.193115,2252,1572.893799,78.36734772,1000,4273.4375,4.2574621
349634.6872,506594.6563,-7.861160755,1.393177748,6.03470993,-0.564885497,-0.809160292,-1.083969474,1374.871704,2257,1624.908447,78.36734772,1000,4281.25,4.2692303
349634.692,506602.4688,-7.844404697,1.405146599,6.015559673,-0.702290058,-0.595419824,-1.083969474,1379.193115,2252,1671.794922,78.36734772,1000,4289.0625,4.2741062
349634.708,506610.2813,-7.858767033,1.39557147,6.013165951,-0.870229006,-0.992366433,-1.297709942,1375.733765,2256,1713.553101,78.36734772,1000,4296.875,4.2901025
349634.7409,506618.0938,-7.858767033,1.385996461,6.046678543,-0.595419824,-0.916030526,-0.885496199,1377.461304,2254,1747.252808,78.36734772,1000,4304.6875,4.3229638
349634.7413,506625.9063,-7.820466995,1.41711545,6.037103653,-0.854961812,-0.961832047,-1.190839648,1379.193115,2252,1775.091553,78.36734772,1000,4312.5,4.3233714
349634.7429,506633.7188,-7.798923016,1.39557147,6.046678543,-0.702290058,-0.717557251,-1.236641169,1374.871704,2257,1791.20874,78.36734772,1000,4320.3125,4.3249349
349634.745,506641.5313,-7.873129845,1.397965312,6.041891098,-1.06870234,-0.748091578,-1.312977076,1380.060669,2251,1800,78.36734772,1000,4328.125,4.3270772
349634.7453,506649.3438,-7.897067547,1.412328005,6.046678543,-0.824427485,-0.625954211,-1.435114503,1376.597046,2255,1797.802246,78.36734772,1000,4335.9375,4.3273772
349634.7469,506657.1563,-7.911430359,1.405146599,6.044284821,-0.702290058,-1.129770994,-1.038167953,1377.461304,2254,1783.882813,78.36734772,1000,4343.75,4.3290029
349634.7639,506664.9688,-7.889886379,1.419509292,6.049072266,-0.473282456,-0.870229006,-1.633587837,1380.060669,2251,1759.706909,78.36734772,1000,4351.5625,4.3460236
349634.7758,506672.7813,-7.832435608,1.412328005,6.05625391,-0.564885497,-0.931297719,-1.572519064,1374.871704,2257,1731.135498,78.36734772,1000,4359.375,4.3578933
349634.7761,506680.5938,-7.894673824,1.405146599,6.032316208,-0.335877866,-0.870229006,-1.603053451,1379.193115,2252,1697.435913,78.36734772,1000,4367.1875,4.3581811
349634.7819,506688.4063,-7.892280102,1.402752876,6.046678543,-0.97709924,-1.007633567,-1.908396959,1377.461304,2254,1663.736206,78.36734772,1000,4375,4.3639652
349634.7878,506696.2188,-7.8683424,1.388390183,6.027528286,-0.53435117,-1.175572515,-1.419847369,1376.597046,2255,1627.838867,78.36734772,1000,4382.8125,4.3699148
349634.8007,506704.0313,-7.85637331,1.390783906,6.029922009,-0.564885497,-1.007633567,-1.709923625,1380.929321,2250,1590.476196,78.36734772,1000,4390.625,4.3828176
349634.8117,506711.8438,-7.849192142,1.366846204,6.020347118,-0.702290058,-1.11450386,-1.450381637,1375.733765,2256,1550.183105,78.36734772,1000,4398.4375,4.3937499
349634.8207,506719.6563,-7.861160755,1.350089788,6.039497375,-0.53435117,-0.870229006,-0.992366433,1379.193115,2252,1509.890137,78.36734772,1000,4406.25,4.4027544
349634.8277,506727.4688,-7.863554955,1.371633768,6.032316208,-0.427480906,-1.160305381,-1.053435087,1379.193115,2252,1472.527466,78.36734772,1000,4414.0625,4.4097386
349634.8327,506735.2813,-7.873129845,1.385996461,6.022740841,-0.229007632,-0.687022924,-1.099236608,1377.461304,2254,1435.164795,78.36734772,1000,4421.875,4.4147798
349634.8416,506743.0938,-7.880311012,1.385996461,6.005984306,-0.152671754,-1.129770994,-1.358778596,1380.929321,2250,1400.732544,78.36734772,1000,4429.6875,4.423679
349634.8516,506750.9063,-7.911430359,1.405146599,6.003590584,-0.335877866,-1.251908422,-1.11450386,1376.597046,2255,1372.161133,78.36734772,1000,4437.5,4.4336621
349634.8519,506758.7188,-7.918611526,1.381208897,6.029922009,-0.259541988,-1.389312983,-1.251908422,1379.193115,2252,1348.717896,78.36734772,1000,4445.3125,4.4339465
349634.8615,506766.5313,-7.909036636,1.383602619,6.03470993,-0.4427481,-1.55725193,-0.916030526,1380.929321,2250,1334.798584,78.36734772,1000,4453.125,4.4436028
349634.8685,506774.3438,-7.873129845,1.388390183,6.0658288,-0.213740453,-1.435114503,-1.099236608,1376.597046,2255,1327.472534,78.36734772,1000,4460.9375,4.4506127
349634.8856,506782.1563,-7.870736122,1.397965312,6.049072266,-0.274809152,-1.435114503,-0.97709924,1380.929321,2250,1323.076904,78.36734772,1000,4468.75,4.4676916
349634.8905,506789.9688,-7.865948677,1.407540441,6.058647633,-0.274809152,-1.603053451,-1.221374035,1378.32666,2253,1322.34436,78.36734772,1000,4476.5625,4.4726122
349634.8925,506797.7813,-7.863554955,1.393177748,6.046678543,-0.53435117,-1.725190878,-1.480916023,1380.060669,2251,1323.80957,78.36734772,1000,4484.375,4.4745865
349634.9155,506805.5938,-7.84679842,1.402752876,6.05625391,-0.610687017,-1.419847369,-1.251908422,1381.799072,2249,1326.739868,78.36734772,1000,4492.1875,4.4975468
349634.9158,506813.4063,-7.830041885,1.412328005,6.051465988,-0.53435117,-1.11450386,-1.099236608,1376.597046,2255,1337.728882,78.36734772,1000,4500,4.4978289
349634.9175,506821.2188,-7.803710461,1.409934163,6.051465988,-0.503816783,-1.206106901,-1.374045849,1381.799072,2249,1351.648315,78.36734772,1000,4507.8125,4.4995862
349634.9305,506829.0313,-7.818072796,1.400359035,6.051465988,-0.778625965,-1.083969474,-1.267175555,1380.060669,2251,1361.904785,78.36734772,1000,4515.625,4.5126001
349634.9309,506836.8438,-7.822860718,1.390783906,6.061041355,-0.366412222,-0.885496199,-1.083969474,1378.32666,2253,1376.556763,78.36734772,1000,4523.4375,4.5130031
349634.9385,506844.6563,-7.865948677,1.397965312,6.0658288,-0.427480906,-0.458015263,-1.083969474,1382.669922,2248,1393.406616,78.36734772,1000,4531.25,4.5205679
349634.9464,506852.4688,-7.84679842,1.41711545,6.041891098,-0.549618304,-0.732824445,-1.11450386,1377.461304,2254,1409.523804,78.36734772,1000,4539.0625,4.5284973
349634.9544,506860.2813,-7.837223053,1.426690578,6.032316208,-0.53435117,-0.4427481,-1.297709942,1380.929321,2250,1424.908447,78.36734772,1000,4546.875,4.536518
349634.9664,506868.0938,-7.837223053,1.393177748,6.041891098,-0.4427481,-0.335877866,-1.603053451,1380.060669,2251,1438.095215,78.36734772,1000,4554.6875,4.5484524
349634.9667,506875.9063,-7.880311012,1.426690578,6.041891098,-0.396946579,-0.458015263,-1.129770994,1377.461304,2254,1451.282104,78.36734772,1000,4562.5,4.548739
349634.9847,506883.7188,-7.880311012,1.426690578,6.046678543,-0.427480906,-0.320610672,-1.435114503,1382.669922,2248,1461.538452,78.36734772,1000,4570.3125,4.5667685
349634.9851,506891.5313,-7.87791729,1.419509292,6.041891098,-0.625954211,-0.305343509,-1.46564889,1378.32666,2253,1469.597046,78.36734772,1000,4578.125,4.5672005
349634.9933,506899.3438,-7.880311012,1.407540441,6.029922009,-0.992366433,-0.610687017,-1.175572515,1381.799072,2249,1471.794922,78.36734772,1000,4585.9375,4.5753433
349634.9992,506907.1563,-7.863554955,1.402752876,6.010772228,-0.916030526,-0.717557251,-1.358778596,1380.929321,2250,1471.062256,78.36734772,1000,4593.75,4.5813187
349635.0093,506914.9688,-7.863554955,1.39557147,5.998803139,-0.595419824,-0.839694679,-1.709923625,1378.32666,2253,1467.399292,78.36734772,1000,4601.5625,4.5913846
349635.0253,506922.7813,-7.851585865,1.405146599,6.015559673,-0.625954211,-1.083969474,-1.480916023,1383.54187,2247,1459.340698,78.36734772,1000,4609.375,4.6073328
349635.0322,506930.5938,-7.830041885,1.390783906,6.017953396,-0.885496199,-1.236641169,-1.923664093,1379.193115,2252,1450.549438,78.36734772,1000,4617.1875,4.6142692
349635.0404,506938.4063,-7.839616776,1.388390183,6.037103653,-1.083969474,-1.404580116,-1.969465613,1380.060669,2251,1438.827881,78.36734772,1000,4625,4.6225003
349635.0407,506946.2188,-7.889886379,1.364452481,6.013165951,-0.763358772,-1.480916023,-1.297709942,1383.54187,2247,1423.443237,78.36734772,1000,4632.8125,4.622728
349635.0477,506954.0313,-7.858767033,1.390783906,6.039497375,-0.793893158,-1.51145041,-1.267175555,1378.32666,2253,1405.128174,78.36734772,1000,4640.625,4.6297748
349635.0615,506961.8438,-7.837223053,1.388390183,6.039497375,-0.412213743,-1.419847369,-1.206106901,1383.54187,2247,1388.278442,78.36734772,1000,4648.4375,4.6435465
349635.0665,506969.6563,-7.842010975,1.39557147,6.03470993,-0.641221344,-1.282442689,-1.206106901,1380.060669,2251,1372.893799,78.36734772,1000,4656.25,4.648562
349635.0747,506977.4688,-7.873129845,1.400359035,6.049072266,-0.641221344,-1.251908422,-1.480916023,1380.929321,2250,1358.241699,78.36734772,1000,4664.0625,4.6568069
349635.0854,506985.2813,-7.885098934,1.400359035,6.061041355,-0.549618304,-1.46564889,-1.404580116,1383.54187,2247,1347.252808,78.36734772,1000,4671.875,4.667526
349635.0915,506993.0938,-7.844404697,1.405146599,6.068222523,-0.564885497,-1.404580116,-1.190839648,1378.32666,2253,1331.868164,78.36734772,1000,4679.6875,4.6735542
349635.1014,507000.9063,-7.82525444,1.405146599,6.044284821,-0.290076345,-0.97709924,-1.145038128,1382.669922,2248,1317.216064,78.36734772,1000,4687.5,4.6834574
349635.1017,507008.7188,-7.796528816,1.405146599,6.05625391,-0.564885497,-0.916030526,-1.541984677,1381.799072,2249,1305.494507,78.36734772,1000,4695.3125,4.6837449
349635.1123,507016.5313,-7.832435608,1.43865943,6.039497375,-0.870229006,-0.58015269,-1.51145041,1380.929321,2250,1295.238037,78.36734772,1000,4703.125,4.6944239
349635.1174,507024.3438,-7.837223053,1.41711545,6.046678543,-1.02290082,-0.839694679,-1.190839648,1384.414917,2246,1286.446899,78.36734772,1000,4710.9375,4.6994544
349635.1264,507032.1563,-7.837223053,1.376421332,6.022740841,-1.053435087,-0.748091578,-1.099236608,1379.193115,2252,1281.318726,78.36734772,1000,4718.75,4.7084393
349635.1403,507039.9688,-7.85637331,1.378815055,6.053860188,-0.778625965,-0.335877866,-1.328244328,1383.54187,2247,1279.12085,78.36734772,1000,4726.5625,4.7223973
349635.1407,507047.7813,-7.870736122,1.385996461,6.017953396,-0.839694679,-0.854961812,-1.267175555,1382.669922,2248,1278.388306,78.36734772,1000,4734.375,4.7228232
349635.1483,507055.5938,-7.892280102,1.405146599,6.03470993,-0.53435117,-1.11450386,-1.282442689,1380.060669,2251,1279.12085,78.36734772,1000,4742.1875,4.7303274
349635.1552,507063.4063,-7.880311012,1.400359035,6.063435078,-0.687022924,-0.900763333,-1.267175555,1384.414917,2246,1285.714233,78.36734772,1000,4750,4.7373031
349635.1653,507071.2188,-7.842010975,1.39557147,6.061041355,-0.564885497,-0.885496199,-1.160305381,1380.929321,2250,1291.575073,78.36734772,1000,4757.8125,4.747334
349635.1772,507079.0313,-7.82525444,1.383602619,6.063435078,-0.381679386,-0.671755731,-1.267175555,1383.54187,2247,1298.168457,78.36734772,1000,4765.625,4.7592448
349635.1776,507086.8438,-7.830041885,1.426690578,6.032316208,-0.183206111,-0.641221344,-1.099236608,1383.54187,2247,1299.633667,78.36734772,1000,4773.4375,4.7596526
349635.1934,507094.6563,-7.851585865,1.41711545,6.032316208,-0.519083977,-0.671755731,-1.206106901,1379.193115,2252,1296.703247,78.36734772,1000,4781.25,4.7754427
349635.1952,507102.4688,-7.849192142,1.419509292,6.041891098,-0.778625965,-0.396946579,-1.236641169,1385.289063,2245,1291.575073,78.36734772,1000,4789.0625,4.7772731
349635.2073,507110.2813,-7.842010975,1.424296856,6.027528286,-0.931297719,-0.687022924,-1.541984677,1381.799072,2249,1287.912109,78.36734772,1000,4796.875,4.7893427
349635.2181,507118.0938,-7.853979588,1.412328005,6.029922009,-0.900763333,-0.717557251,-1.648854971,1382.669922,2248,1287.912109,78.36734772,1000,4804.6875,4.8001578
349635.2241,507125.9063,-7.880311012,1.412328005,6.029922009,-1.129770994,-0.53435117,-1.633587837,1384.414917,2246,1291.575073,78.36734772,1000,4812.5,4.8061674
349635.2321,507133.7188,-7.897067547,1.402752876,6.032316208,-0.946564913,-0.595419824,-1.038167953,1380.060669,2251,1298.901123,78.36734772,1000,4820.3125,4.8141326
349635.2381,507141.5313,-7.870736122,1.393177748,6.020347118,-0.793893158,-0.671755731,-1.282442689,1385.289063,2245,1306.959717,78.36734772,1000,4828.125,4.8201283
349635.2522,507149.3438,-7.83482933,1.402752876,6.032316208,-0.53435117,-0.763358772,-1.374045849,1381.799072,2249,1315.018311,78.36734772,1000,4835.9375,4.8342782
349635.2526,507157.1563,-7.83482933,1.419509292,6.044284821,-0.58015269,-0.641221344,-1.877862573,1381.799072,2249,1320.87915,78.36734772,1000,4843.75,4.8346909
349635.2642,507164.9688,-7.882704735,1.414721727,6.025134563,-1.129770994,-1.145038128,-1.496183157,1386.164307,2244,1325.27478,78.36734772,1000,4851.5625,4.8463065
349635.2719,507172.7813,-7.885098934,1.421903014,6.013165951,-0.366412222,-0.824427485,-1.496183157,1380.929321,2250,1326.739868,78.36734772,1000,4859.375,4.8540172
349635.2724,507180.5938,-7.889886379,1.402752876,5.998803139,-0.24427481,-1.267175555,-1.328244328,1386.164307,2244,1326.007324,78.36734772,1000,4867.1875,4.8544603
349635.2879,507188.4063,-7.87791729,1.369239926,6.015559673,-0.381679386,-1.587786317,-1.374045849,1383.54187,2247,1323.80957,78.36734772,1000,4875,4.8700263
349635.2899,507196.2188,-7.892280102,1.39557147,6.003590584,-0.290076345,-1.847328186,-1.709923625,1382.669922,2248,1319.41394,78.36734772,1000,4882.8125,4.8720173
349635.3049,507204.0313,-7.932974339,1.397965312,6.008378029,-0.549618304,-1.877862573,-1.358778596,1387.040649,2243,1315.750977,78.36734772,1000,4890.625,4.8869619
349635.3129,507211.8438,-7.932974339,1.393177748,6.008378029,-0.351145029,-1.893129826,-1.251908422,1382.669922,2248,1313.553101,78.36734772,1000,4898.4375,4.8949765
349635.3133,507219.6563,-7.863554955,1.397965312,6.044284821,-0.290076345,-1.923664093,-1.190839648,1385.289063,2245,1312.820557,78.36734772,1000,4906.25,4.8953856
349635.3249,507227.4688,-7.818072796,1.39557147,6.044284821,-0.641221344,-1.832061052,-1.358778596,1386.164307,2244,1312.820557,78.36734772,1000,4914.0625,4.9069869
349635.3252,507235.2813,-7.832435608,1.412328005,6.044284821,-0.625954211,-1.755725145,-1.496183157,1382.669922,2248,1316.483521,78.36734772,1000,4921.875,4.9072694
349635.3357,507243.0938,-7.84679842,1.43865943,6.058647633,-0.732824445,-1.679389358,-1.358778596,1387.040649,2243,1322.34436,78.36734772,1000,4929.6875,4.9178071
349635.3537,507250.9063,-7.830041885,1.431478143,6.082585335,-0.916030526,-1.587786317,-1.190839648,1382.669922,2248,1328.937744,78.36734772,1000,4937.5,4.9357915
349635.3607,507258.7188,-7.784560204,1.407540441,6.08737278,-0.931297719,-0.946564913,-1.297709942,1385.289063,2245,1336.263794,78.36734772,1000,4945.3125,4.9427909
349635.3667,507266.5313,-7.772591114,1.412328005,6.08737278,-0.748091578,-0.381679386,-1.633587837,1385.289063,2245,1349.450562,78.36734772,1000,4953.125,4.948792
349635.367,507274.3438,-7.801316738,1.419509292,6.092160225,-0.396946579,-0.030534351,-1.160305381,1381.799072,2249,1366.300415,78.36734772,1000,4960.9375,4.9490807
349635.3768,507282.1563,-7.815679073,1.424296856,6.058647633,-0.320610672,0.183206111,-1.55725193,1386.164307,2244,1390.476196,78.36734772,1000,4968.75,4.9588943
349635.3916,507289.9688,-7.85637331,1.433871984,6.044284821,-0.290076345,0.152671754,-1.603053451,1383.54187,2247,1419.047607,78.36734772,1000,4976.5625,4.9736981
349635.3919,507297.7813,-7.873129845,1.407540441,6.027528286,-0.671755731,0.24427481,-1.648854971,1384.414917,2246,1453.479858,78.36734772,1000,4984.375,4.9740167
349635.3976,507305.5938,-7.889886379,1.390783906,6.027528286,-0.381679386,-0.213740453,-1.770992398,1386.164307,2244,1497.435913,78.36734772,1000,4992.1875,4.9796919
349635.4106,507313.4063,-7.904248714,1.393177748,5.996409416,-0.702290058,-0.305343509,-1.832061052,1380.929321,2250,1545.787598,78.36734772,1000,5000,4.9927171
349635.4157,507321.2188,-7.935368061,1.397965312,5.986834049,-0.519083977,-0.931297719,-1.862595439,1386.164307,2244,1592.67395,78.36734772,1000,5007.8125,4.9977559
349635.4305,507329.0313,-7.935368061,1.39557147,6.020347118,-0.946564913,-1.358778596,-1.541984677,1383.54187,2247,1641.025635,78.36734772,1000,5015.625,5.0126268
349635.4365,507336.8438,-7.882704735,1.402752876,6.032316208,-0.961832047,-1.709923625,-1.450381637,1382.669922,2248,1691.575073,78.36734772,1000,5023.4375,5.0185675
349635.4445,507344.6563,-7.870736122,1.407540441,6.037103653,-1.328244328,-1.786259532,-1.404580116,1386.164307,2244,1735.531128,78.36734772,1000,5031.25,5.0265682
349635.4448,507352.4688,-7.85637331,1.390783906,6.029922009,-1.328244328,-2.091603041,-1.175572515,1382.669922,2248,1769.963379,78.36734772,1000,5039.0625,5.026858
349635.4535,507360.2813,-7.887492657,1.381208897,6.015559673,-1.145038128,-1.938931346,-1.358778596,1386.164307,2244,1796.337036,78.36734772,1000,5046.875,5.0356109
349635.4664,507368.0938,-7.861160755,1.369239926,6.025134563,-0.839694679,-1.969465613,-0.793893158,1384.414917,2246,1811.721558,78.36734772,1000,5054.6875,5.0484829
349635.4668,507375.9063,-7.837223053,1.381208897,6.029922009,-0.641221344,-1.389312983,-0.809160292,1382.669922,2248,1816.117188,78.36734772,1000,5062.5,5.0489032
349635.4757,507383.7188,-7.798923016,1.393177748,6.080191612,-0.687022924,-1.282442689,-1.145038128,1387.040649,2243,1808.058594,78.36734772,1000,5070.3125,5.0577481
349635.4824,507391.5313,-7.815679073,1.397965312,6.0658288,-0.702290058,-0.793893158,-1.007633567,1382.669922,2248,1789.74353,78.36734772,1000,5078.125,5.0644644
349635.4913,507399.3438,-7.839616776,1.421903014,6.070616245,-0.564885497,-0.839694679,-1.282442689,1385.289063,2245,1764.835205,78.36734772,1000,5085.9375,5.0734257
349635.4994,507407.1563,-7.832435608,1.407540441,6.058647633,-0.427480906,-0.48854962,-1.236641169,1384.414917,2246,1731.135498,78.36734772,1000,5093.75,5.0814573
349635.5124,507414.9688,-7.827648163,1.400359035,6.032316208,-0.53435117,-0.519083977,-1.053435087,1382.669922,2248,1693.040283,78.36734772,937.5,5101.5625,5.0944675
349635.5223,507422.7813,-7.839616776,1.431478143,6.022740841,-0.473282456,-0.595419824,-1.587786317,1387.040649,2243,1654.945068,78.36734772,937.5,5109.375,5.1043551
349635.5263,507430.5938,-7.84679842,1.41711545,6.029922009,-1.02290082,-0.97709924,-1.664122105,1383.54187,2247,1619.780273,78.36734772,937.5,5117.1875,5.1083715
349635.5384,507438.4063,-7.894673824,1.400359035,6.039497375,-0.671755731,-0.763358772,-1.480916023,1385.289063,2245,1586.813232,78.36734772,937.5,5125,5.1205006
349635.5542,507446.2188,-7.875523567,1.385996461,6.025134563,-0.870229006,-0.839694679,-1.312977076,1387.040649,2243,1553.113525,78.36734772,937.5,5132.8125,5.1362894
349635.5602,507454.0313,-7.865948677,1.402752876,6.03470993,-0.717557251,-1.190839648,-1.328244328,1382.669922,2248,1523.80957,78.36734772,937.5,5140.625,5.1423089
349635.5712,507461.8438,-7.897067547,1.376421332,6.013165951,-0.687022924,-1.038167953,-1.435114503,1387.918091,2242,1494.505493,78.36734772,937.5,5148.4375,5.1532593
349635.5717,507469.6563,-7.909036636,1.374027491,6.010772228,-0.625954211,-1.145038128,-1.297709942,1384.414917,2246,1468.864502,78.36734772,937.5,5156.25,5.1537776
349635.5754,507477.4688,-7.901854992,1.414721727,5.996409416,-0.213740453,-1.633587837,-1.145038128,1384.414917,2246,1449.816895,78.36734772,937.5,5164.0625,5.15745
349635.5882,507485.2813,-7.870736122,1.388390183,6.001196861,-0.473282456,-1.908396959,-1.419847369,1387.918091,2242,1431.501831,78.36734772,937.5,5171.875,5.1702546
349635.5902,507493.0938,-7.873129845,1.381208897,6.001196861,-0.412213743,-1.877862573,-1.236641169,1383.54187,2247,1412.454224,78.36734772,937.5,5179.6875,5.1722402
349635.6001,507500.9063,-7.865948677,1.388390183,6.020347118,-0.015267176,-2.122137308,-1.160305381,1387.040649,2243,1397.802246,78.36734772,937.5,5187.5,5.1821837
349635.6005,507508.7188,-7.8683424,1.388390183,6.051465988,-0.229007632,-2.564885378,-0.824427485,1386.164307,2244,1383.150146,78.36734772,937.5,5195.3125,5.1825745
349635.61,507516.5313,-7.844404697,1.407540441,6.03470993,-0.183206111,-2.366412163,-1.358778596,1384.414917,2246,1374.359009,78.36734772,937.5,5203.125,5.192123
349635.622,507524.3438,-7.839616776,1.405146599,6.068222523,-0.381679386,-2.335877895,-1.435114503,1388.796631,2241,1367.032959,78.36734772,937.5,5210.9375,5.2040556
349635.632,507532.1563,-7.844404697,1.39557147,6.051465988,-0.717557251,-2.183206081,-1.480916023,1383.54187,2247,1362.637329,78.36734772,937.5,5218.75,5.2141043
349635.638,507539.9688,-7.853979588,1.397965312,6.061041355,-0.870229006,-2.122137308,-1.480916023,1387.918091,2242,1358.974365,78.36734772,937.5,5226.5625,5.2200609
349635.6462,507547.7813,-7.842010975,1.424296856,6.049072266,-0.473282456,-1.801526666,-1.190839648,1387.040649,2243,1356.776611,78.36734772,937.5,5234.375,5.2282798
349635.6549,507555.5938,-7.815679073,1.402752876,6.08737278,-0.671755731,-1.816793919,-1.343511462,1384.414917,2246,1357.509155,78.36734772,937.5,5242.1875,5.2369885
349635.6552,507563.4063,-7.813285351,1.397965312,6.094553947,-0.778625965,-1.541984677,-1.541984677,1388.796631,2241,1362.637329,78.36734772,937.5,5250,5.2372627
349635.665,507571.2188,-7.849192142,1.39557147,6.101735592,-0.396946579,-1.083969474,-1.083969474,1384.414917,2246,1364.835205,78.36734772,937.5,5257.8125,5.2470845
349635.68,507579.0313,-7.822860718,1.390783906,6.058647633,0.030534351,-0.53435117,-1.206106901,1387.918091,2242,1370.695923,78.36734772,937.5,5265.625,5.2620303
349635.6801,507586.8438,-7.801316738,1.388390183,6.089766502,-0.366412222,-0.381679386,-1.55725193,1387.918091,2242,1377.289429,78.36734772,937.5,5273.4375,5.2622192
349635.6899,507594.6563,-7.813285351,1.400359035,6.070616245,-0.793893158,-0.458015263,-1.297709942,1384.414917,2246,1389.010986,78.36734772,937.5,5281.25,5.2720126
349635.6978,507602.4688,-7.815679073,1.390783906,6.063435078,-0.473282456,-0.106870227,-1.145038128,1389.676392,2240,1404.39563,78.36734772,937.5,5289.0625,5.2798668
349635.7038,507610.2813,-7.87791729,1.376421332,6.032316208,-0.381679386,-0.381679386,-1.175572515,1385.289063,2245,1420.512817,78.36734772,937.5,5296.875,5.2858641
349635.7158,507618.0938,-7.885098934,1.376421332,6.027528286,-0.213740453,-0.351145029,-1.251908422,1387.918091,2242,1434.432251,78.36734772,937.5,5304.6875,5.2979015
349635.7161,507625.9063,-7.911430359,1.397965312,6.015559673,-0.396946579,-1.175572515,-1.221374035,1388.796631,2241,1443.223389,78.36734772,937.5,5312.5,5.2982055
349635.732,507633.7188,-7.892280102,1.39557147,6.005984306,-0.351145029,-1.312977076,-0.900763333,1384.414917,2246,1448.351685,78.36734772,937.5,5320.3125,5.31403
349635.7397,507641.5313,-7.897067547,1.407540441,6.032316208,-0.458015263,-1.450381637,-1.175572515,1389.676392,2240,1443.956055,78.36734772,937.5,5328.125,5.3217795
349635.7507,507649.3438,-7.906642914,1.393177748,6.010772228,-0.763358772,-1.709923625,-0.946564913,1386.164307,2244,1438.827881,78.36734772,937.5,5335.9375,5.3327966
349635.7511,507657.1563,-7.904248714,1.381208897,6.015559673,-0.610687017,-2.091603041,-1.236641169,1386.164307,2244,1432.234375,78.36734772,937.5,5343.75,5.333208
349635.7633,507664.9688,-7.870736122,1.414721727,6.017953396,-0.564885497,-1.908396959,-1.587786317,1389.676392,2240,1424.175781,78.36734772,937.5,5351.5625,5.3453994
349635.7726,507672.7813,-7.818072796,1.402752876,6.058647633,-0.458015263,-2.091603041,-1.587786317,1385.289063,2245,1416.117188,78.36734772,937.5,5359.375,5.3546828
349635.7746,507680.5938,-7.813285351,1.407540441,6.075404167,-0.656488538,-1.908396959,-1.648854971,1390.557129,2239,1408.79126,78.36734772,937.5,5367.1875,5.3567233
349635.7906,507688.4063,-7.830041885,1.393177748,6.075404167,-0.885496199,-1.206106901,-1.312977076,1387.040649,2243,1400,78.36734772,937.5,5375,5.3726863
349635.7909,507696.2188,-7.83482933,1.41711545,6.068222523,-0.793893158,-1.541984677,-1.480916023,1387.040649,2243,1389.74353,78.36734772,937.5,5382.8125,5.3729749
349635.7986,507704.0313,-7.83482933,1.393177748,6.070616245,-0.595419824,-1.083969474,-1.282442689,1389.676392,2240,1376.556763,78.36734772,937.5,5390.625,5.3806352
349635.8105,507711.8438,-7.801316738,1.390783906,6.061041355,-0.671755731,-1.129770994,-1.587786317,1386.164307,2244,1361.904785,78.36734772,937.5,5398.4375,5.3926145
349635.8166,507719.6563,-7.815679073,1.419509292,6.068222523,-0.793893158,-0.809160292,-1.664122105,1388.796631,2241,1349.450562,78.36734772,937.5,5406.25,5.3986287
349635.8266,507727.4688,-7.851585865,1.376421332,6.068222523,-0.97709924,-0.97709924,-1.404580116,1389.676392,2240,1334.798584,78.36734772,937.5,5414.0625,5.4087072
349635.8269,507735.2813,-7.882704735,1.407540441,6.068222523,-0.595419824,-1.083969474,-1.053435087,1387.040649,2243,1321.611694,78.36734772,937.5,5421.875,5.4089894
349635.8444,507743.0938,-7.839616776,1.390783906,6.058647633,-0.763358772,-1.007633567,-1.312977076,1391.439087,2238,1309.157471,78.36734772,937.5,5429.6875,5.4264973
349635.8544,507750.9063,-7.844404697,1.385996461,6.044284821,-0.641221344,-0.793893158,-1.267175555,1386.164307,2244,1293.772949,78.36734772,937.5,5437.5,5.4364745
349635.8547,507758.7188,-7.796528816,1.407540441,6.053860188,-0.656488538,-0.885496199,-1.46564889,1389.676392,2240,1279.853516,78.36734772,937.5,5445.3125,5.4367619
349635.8614,507766.5313,-7.851585865,1.414721727,6.041891098,-0.549618304,-0.916030526,-1.450381637,1390.557129,2239,1273.992676,78.36734772,937.5,5453.125,5.4434566
349635.8674,507774.3438,-7.8683424,1.42908442,6.022740841,-1.190839648,-0.97709924,-1.389312983,1387.040649,2243,1270.329712,78.36734772,937.5,5460.9375,5.4494962
349635.8774,507782.1563,-7.873129845,1.397965312,6.053860188,-0.793893158,-1.145038128,-1.206106901,1391.439087,2238,1271.062256,78.36734772,937.5,5468.75,5.4594476
349635.8873,507789.9688,-7.851585865,1.383602619,6.022740841,-0.931297719,-0.824427485,-1.374045849,1387.918091,2242,1273.992676,78.36734772,937.5,5476.5625,5.4693592
349635.8973,507797.7813,-7.844404697,1.383602619,6.044284821,-0.595419824,-1.160305381,-0.992366433,1389.676392,2240,1276.923096,78.36734772,937.5,5484.375,5.4794099
349635.9013,507805.5938,-7.863554955,1.376421332,6.029922009,-0.610687017,-1.038167953,-1.419847369,1391.439087,2238,1282.783936,78.36734772,937.5,5492.1875,5.4833778
349635.9114,507813.4063,-7.899461269,1.383602619,6.039497375,-0.503816783,-1.190839648,-1.175572515,1386.164307,2244,1284.981689,78.36734772,937.5,5500,5.4934498
349635.9214,507821.2188,-7.882704735,1.402752876,6.03470993,-0.854961812,-0.97709924,-1.343511462,1392.322144,2237,1285.714233,78.36734772,937.5,5507.8125,5.5034429
349635.9272,507829.0313,-7.861160755,1.381208897,6.039497375,-0.53435117,-1.221374035,-1.328244328,1388.796631,2241,1288.644653,78.36734772,937.5,5515.625,5.5092747
349635.9275,507836.8438,-7.818072796,1.376421332,6.037103653,-0.48854962,-1.236641169,-1.221374035,1388.796631,2241,1290.842529,78.36734772,937.5,5523.4375,5.5095478
349635.9383,507844.6563,-7.83482933,1.390783906,6.039497375,-0.53435117,-1.358778596,-1.709923625,1391.439087,2238,1293.040283,78.36734772,937.5,5531.25,5.5203341
349635.9501,507852.4688,-7.885098934,1.407540441,6.032316208,-0.595419824,-1.083969474,-1.328244328,1387.040649,2243,1294.505493,78.36734772,937.5,5539.0625,5.5322118
349635.9571,507860.2813,-7.885098934,1.402752876,6.041891098,-0.58015269,-1.435114503,-1.145038128,1392.322144,2237,1296.703247,78.36734772,937.5,5546.875,5.5391729
349635.9691,507868.0938,-7.830041885,1.385996461,6.049072266,-0.732824445,-1.083969474,-1.328244328,1390.557129,2239,1299.633667,78.36734772,937.5,5554.6875,5.5511703
349635.9696,507875.9063,-7.815679073,1.376421332,6.061041355,-0.656488538,-1.404580116,-1.343511462,1387.918091,2242,1301.831543,78.36734772,937.5,5562.5,5.5516278
349635.982,507883.7188,-7.839616776,1.390783906,6.058647633,-0.53435117,-1.267175555,-1.038167953,1392.322144,2237,1304.761963,78.36734772,937.5,5570.3125,5.5641159
349635.9823,507891.5313,-7.892280102,1.376421332,6.080191612,-0.625954211,-1.297709942,-1.312977076,1387.918091,2242,1309.890137,78.36734772,937.5,5578.125,5.5644081
349635.994,507899.3438,-7.904248714,1.402752876,6.080191612,-0.671755731,-1.328244328,-0.946564913,1392.322144,2237,1317.216064,78.36734772,937.5,5585.9375,5.5760745
349636.022,507907.1563,-7.830041885,1.405146599,6.058647633,-0.671755731,-1.099236608,-1.297709942,1390.557129,2239,1326.739868,78.36734772,937.5,5593.75,5.6040826
349636.0223,507914.9688,-7.820466995,1.402752876,6.049072266,-0.625954211,-1.51145041,-1.328244328,1388.796631,2241,1334.798584,78.36734772,937.5,5601.5625,5.6043682
349636.0227,507922.7813,-7.818072796,1.39557147,6.044284821,-0.687022924,-1.206106901,-1.435114503,1394.091553,2235,1342.124512,78.36734772,937.5,5609.375,5.6047446
349636.025,507930.5938,-7.858767033,1.390783906,6.068222523,-0.549618304,-1.038167953,-1.496183157,1389.676392,2240,1347.985352,78.36734772,937.5,5617.1875,5.6070277
349636.0371,507938.4063,-7.839616776,1.397965312,6.041891098,-0.702290058,-0.916030526,-1.46564889,1391.439087,2238,1351.648315,78.36734772,937.5,5625,5.6191575
349636.0375,507946.2188,-7.810891628,1.383602619,6.046678543,-0.641221344,-0.916030526,-1.343511462,1393.206299,2236,1353.113525,78.36734772,937.5,5632.8125,5.6195583
